#   1 NUMBER                 Running object number                                     
#   2 X_IMAGE                Object position along x                                    [pixel]
#   3 Y_IMAGE                Object position along y                                    [pixel]
#   4 A_IMAGE                Profile RMS along major axis                               [pixel]
#   5 B_IMAGE                Profile RMS along minor axis                               [pixel]
#   6 THETA_IMAGE            Position angle (CCW/x)                                     [deg]
         1   1422.503     71.833    48.043     0.468 -60.8
         2    328.160     81.733    10.374     1.386  55.0
         3    763.031     30.574    25.448     2.873  14.4
         4   1196.328     31.797     4.290     1.051 -53.5
         5   1526.530     18.473     4.335     0.728 -87.6
         6    566.972     16.037     1.047     0.877 -51.1
         7    453.618     14.003     1.836     0.860 -11.5
         8     23.727      9.809     1.146     0.930  72.4
         9     81.418     12.257     4.862     0.608 -67.9
        10   1866.211      1.000   173.229     0.289   0.0
        11     22.273     19.339     2.695     0.703 -47.7
        12     35.005     10.810     0.931     0.577  58.7
        13    505.082     15.311     0.698     0.638  85.7
        14   1551.182     18.763     0.677     0.611  84.9
        15    693.085     30.007     1.290     0.819 -59.6
        16    813.796     36.070     5.295     0.877  17.2
        17      4.589     30.884     1.383     0.486 -86.5
        18    448.254     38.497     1.381     0.578 -26.3
        19   1493.127     71.241     6.222     0.558  48.5
        20    298.803     64.574     5.301     1.782 -47.4
        21   1629.364     35.241     1.052     0.673   3.5
        22   2018.230     46.468     5.479     0.476 -12.7
        23   1850.039     49.382     2.227     0.975 -52.1
        24    267.496     67.312     4.295     0.539 -89.2
        25    677.021     44.822     0.603     0.581 -65.0
        26   1526.533     46.732     1.038     0.776 -85.8
        27   1714.996     41.036     0.399     0.344   0.2
        28   1866.727     46.756     0.547     0.535 -66.4
        29   1526.257     55.736     1.465     0.369 -80.5
        30   1765.285     48.059     0.456     0.227   9.4
        31   1531.707     55.583     0.714     0.707  23.4
        32   1628.488     56.318     0.673     0.644   7.8
        33   1555.406     56.465     0.798     0.200 -54.5
        34    698.423     58.078     0.494     0.397   1.0
        35   1983.474     93.987     4.686     0.894  55.2
        36   1551.062     58.265     1.267     0.358 -16.2
        37    956.862     61.943     0.718     0.551  72.6
        38   1285.058     61.777     0.543     0.525  83.4
        39   1721.334     67.233     0.720     0.683 -36.3
        40    942.747     64.181     0.435     0.384   4.3
        41   1945.010     76.156     1.790     0.778   1.8
        42    797.036     87.939     3.314     1.193 -11.9
        43   1620.604     78.305     0.587     0.481 -74.7
        44    534.173     79.229     0.458     0.426  47.0
        45     77.427     86.272     0.605     0.582 -59.0
        46    537.346     82.303     0.476     0.459  -5.5
        47   1247.974     94.848     0.927     0.854  52.8
        48    654.331    108.900     3.555     0.777 -39.0
        49      5.989     87.937     0.378     0.322 -89.0
        50    823.430    102.769     1.444     0.532 -75.7
        51   1343.294     97.832     0.676     0.662   0.3
        52   1274.749     99.386     0.779     0.764  30.2
        53   1346.901    108.584    11.693     0.836   4.3
        54    362.575    104.743     0.839     0.780  83.4
        55   1448.356    103.171     0.479     0.377   0.8
        56    459.344    107.221     0.743     0.338 -36.9
        57    248.452    111.515     0.730     0.627  28.4
        58   1220.055    106.640     0.482     0.349  82.0
        59    270.335    133.105     1.274     0.397  77.9
        60   1771.185    119.172     0.623     0.598 -19.8
        61    428.818    119.254     0.507     0.443  63.2
        62    164.313    117.885     0.464     0.338   0.2
        63   1814.354    195.264     7.732     1.094  77.7
        64    576.930    127.673     0.713     0.690  74.1
        65    962.341    127.828     0.725     0.698 -57.3
        66    464.024    136.801     3.849     0.525  24.8
        67    814.314    146.663     2.401     0.640 -62.2
        68    630.784    144.922     0.551     0.536 -51.4
        69    547.391    144.385     0.507     0.493 -61.3
        70    891.089    148.318     0.480     0.391  85.4
        71   1784.601    146.182     0.491     0.384  -6.9
        72    568.318    152.347     0.907     0.489 -21.9
        73    239.248    150.172     0.506     0.448  14.0
        74     88.830    157.926     3.530     0.772  12.9
        75   2017.122    164.881     1.331     0.709  58.0
        76   1134.329    162.556     0.573     0.560  67.8
        77    486.487    205.751     6.041     0.538 -45.0
        78    295.634    190.560     5.802     0.526  34.7
        79   1651.435    169.019     0.920     0.441 -48.6
        80    371.457    169.079     0.694     0.641  41.3
        81    970.885    173.039     0.703     0.660 -83.8
        82    774.229    170.323     0.496     0.404  66.4
        83    794.616    200.730    19.954     0.564   9.1
        84    643.898    175.647     0.532     0.473 -89.3
        85    848.287    292.659    16.366     0.510 -54.0
        86    559.681    211.432     7.035     1.182  32.8
        87    955.909    181.955     0.964     0.698  -2.2
        88   1132.482    177.855     0.500     0.400  -2.5
        89   1892.020    183.179     1.576     0.363 -32.9
        90   1641.098    220.823     6.235     1.036  51.7
        91    542.080    182.191     0.428     0.380 -87.6
        92   1911.080    180.288     0.453     0.271 -89.8
        93    605.780    183.937     0.552     0.535 -22.3
        94    270.167    205.771     2.710     0.370  89.0
        95   1214.069    194.141     0.658     0.650  87.4
        96    270.369    194.028     0.903     0.482 -89.1
        97    169.881    232.596     6.722     1.703  48.9
        98    347.248    197.934     0.513     0.470 -62.6
        99   1609.095    194.746     0.436     0.292  87.7
       100    728.219    204.473     0.766     0.660 -45.2
       101   1310.346    204.449     1.020     0.462  11.6
       102    270.105    219.011     2.037     0.302  88.5
       103    541.139    214.149     0.689     0.558 -24.6
       104    100.191    217.691     4.537     0.798   9.0
       105   1004.209    208.667     0.471     0.407  88.3
       106   1835.422    235.674     7.229     2.493  12.6
       107   1160.476    759.431    32.661     4.862  89.5
       108    578.280    226.555     0.702     0.651  68.8
       109   1471.469    236.372     1.550     0.884 -38.4
       110   1090.412    243.120     0.741     0.719  38.3
       111    925.536    566.716    44.571     0.538 -62.4
       112   1445.131    239.291     0.456     0.335  83.2
       113    215.583    268.852    13.041     1.305   7.0
       114   1530.124    250.756     0.731     0.722 -28.5
       115   1352.513    259.814     0.754     0.627 -64.0
       116    409.287    258.585     0.608     0.361 -51.1
       117   1866.043    284.837     2.339     1.273 -49.2
       118    514.473    275.131     2.057     1.219 -44.2
       119   1354.446    274.415     1.040     0.832  43.0
       120   1115.933    275.659     0.668     0.660  50.3
       121     21.428    312.607     3.958     2.667  71.5
       122    723.364    382.453    15.032     1.053  84.5
       123   1857.648    278.500     0.503     0.474 -69.9
       124   1063.093    288.819     0.734     0.697 -18.9
       125    338.995    293.022     0.892     0.757 -25.1
       126    623.000    288.852     0.381     0.355   0.0
       127   1044.605    291.469     0.500     0.487  71.4
       128   1285.824    355.130    11.224     0.537  40.9
       129   1245.810    299.023     0.416     0.391  77.0
       130    643.820    354.518    10.287     1.448  45.5
       131   1125.804    320.019     1.390     0.872  63.0
       132   1019.074    319.475     0.942     0.771 -16.3
       133   1553.300    327.196     0.560     0.532  65.6
       134     15.825    373.711    10.920     2.069 -27.8
       135   1084.738    329.317     0.586     0.537 -49.0
       136   1366.798    332.766     2.267     0.502   3.5
       137   1724.880    361.982     5.783     3.650 -13.5
       138   1950.867    329.588     0.493     0.339 -86.5
       139   1139.779    351.545     3.467     0.782 -30.1
       140    111.314    343.522     1.090     0.751  46.1
       141   1634.004    344.274     0.881     0.853 -89.1
       142   1681.364    354.789    11.183     0.974   2.8
       143   1845.799    345.568     0.626     0.596 -85.7
       144    403.038    341.260     0.439     0.192 -89.5
       145    303.446    350.930     0.990     0.750   8.9
       146   1831.378    346.152     0.512     0.488   0.4
       147    791.110    361.697     2.299     0.762 -54.9
       148    116.471    353.642     0.660     0.593  66.5
       149      7.662    516.208    15.941     0.923  89.9
       150    965.177    380.477     3.993     1.668 -46.8
       151    295.643    388.166     3.675     1.184 -77.6
       152   1965.773    364.421     0.793     0.715 -71.9
       153   1763.361    359.983     0.600     0.578 -30.3
       154   1811.247    426.126    11.697     1.034 -29.1
       155   1247.376    392.254     5.059     1.158 -41.2
       156   1374.333    368.319     0.774     0.659  56.2
       157   1069.002    387.402     5.159     0.895 -25.6
       158   1581.336    371.276     0.472     0.447   0.7
       159   1856.244    387.199     1.509     0.874  85.8
       160    913.654    379.930     1.173     0.369 -72.7
       161    996.385    374.795     0.535     0.527  63.6
       162   1290.027    385.189     1.227     0.760   7.0
       163    856.162    381.496     0.559     0.533 -59.7
       164    696.709    377.706     0.458     0.452 -52.0
       165   1693.989    382.752     0.532     0.531  75.1
       166    385.149    387.927     0.526     0.495 -31.5
       167    522.575    391.438     0.659     0.642 -73.2
       168    565.039    390.085     0.527     0.446  -7.3
       169   1882.757    402.117     0.903     0.733  87.5
       170   1848.192    392.672     0.470     0.394  87.9
       171    443.379    467.624    13.379     6.152  -2.7
       172   1211.096    399.762     0.652     0.638 -72.2
       173    932.608    394.384     0.513     0.460 -44.1
       174   1266.936    395.018     0.379     0.317  -3.0
       175    908.307    411.501     3.198     0.773 -17.3
       176   1402.546    507.207    13.633     4.269  68.4
       177   1289.596    439.063     4.657     1.438 -65.3
       178    508.615    403.349     0.488     0.475 -21.5
       179    612.357    434.210     5.071     0.768 -26.4
       180    706.616    420.584     0.961     0.634  73.5
       181    286.505    416.251     0.616     0.543  83.2
       182   1533.366    418.807     2.248     0.525   4.6
       183   1987.047    435.038     1.367     0.963 -84.7
       184   1093.068    422.598     0.515     0.252  89.8
       185    880.455    441.858     2.316     0.734  77.8
       186    649.797    432.207     2.091     0.869 -20.4
       187    831.089    426.019     0.611     0.424  63.6
       188    794.754    427.036     0.644     0.388 -68.7
       189    511.684    429.945     0.470     0.463 -58.3
       190    582.178    432.038     0.599     0.548  56.1
       191    491.398    441.474     0.825     0.815  23.6
       192   1286.735    435.404     0.519     0.498 -86.4
       193    966.865    438.290     0.794     0.608  -0.6
       194   1601.654    470.789     3.637     0.825 -89.2
       195    936.507    454.498     2.921     0.872  24.4
       196   1455.385    446.617     0.787     0.710 -59.8
       197    971.275    450.515     1.002     0.657 -32.7
       198    649.065    465.675     2.706     1.553 -26.6
       199   1325.243    469.160     8.839     0.528 -17.0
       200   1211.529    451.880     0.631     0.608 -68.3
       201    688.528    463.738     3.446     0.790 -21.4
       202   1888.277    462.926     4.351     1.087  22.5
       203    943.402    477.089     3.609     1.983  77.7
       204   1117.967    457.865     0.662     0.638 -72.6
       205   1163.363    452.871     0.660     0.616  38.0
       206   1145.950    462.087     1.278     0.664  54.2
       207   1367.182    496.740     6.406     1.705 -32.3
       208   1286.293    462.977     1.806     0.539  -7.6
       209    478.959    469.338     0.616     0.555  66.7
       210    507.414    474.161     0.875     0.856 -82.1
       211    692.580    476.238     0.967     0.658 -69.0
       212    437.619    522.405     5.175     1.074 -77.0
       213   1290.573    474.165     0.495     0.371   3.3
       214   1649.578    481.695     0.573     0.560 -68.2
       215    278.720    512.622     3.852     0.565  75.3
       216    314.118    524.119     4.949     1.078 -85.4
       217   1321.267    497.241     0.516     0.506 -38.4
       218   1212.555    523.483     6.008     0.523 -30.0
       219    412.284    498.188     0.451     0.390  -6.3
       220    125.182    502.932     0.408     0.236 -23.4
       221   1860.743    519.755     1.453     0.643 -51.8
       222   1329.728    516.535     0.863     0.764 -89.7
       223    899.007    562.042     6.527     0.797 -60.5
       224    196.854    511.440     0.496     0.363  89.5
       225   1852.246    515.502     1.347     0.415  12.6
       226    641.175    524.070     0.608     0.579 -46.8
       227   1690.695    529.473     0.661     0.645 -87.6
       228    370.027    534.932     0.716     0.219 -89.1
       229   2016.520    536.239     0.666     0.322  49.0
       230   1341.024    552.326     2.178     0.487  81.3
       231   1646.060    540.030     0.702     0.647 -81.4
       232    577.792    557.636     5.021     1.304  18.7
       233   1657.161    549.120     3.076     0.539 -21.1
       234   1463.776    547.350     0.700     0.629 -80.2
       235   1605.069    549.072     0.630     0.604  83.4
       236   1737.316    557.031     0.940     0.814  -4.7
       237   1291.973    550.414     0.493     0.366  86.9
       238   1241.927    561.876     0.744     0.624 -31.6
       239   1967.894    567.186     0.601     0.260 -71.9
       240    837.362    572.396     0.711     0.705   8.0
       241    957.715    584.815     3.281     0.539 -28.9
       242   1453.927    573.939     0.566     0.549 -67.8
       243   1957.132    594.499     2.939     0.514 -62.7
       244   1968.162    579.908     0.754     0.741 -61.4
       245    308.537    588.913     4.936     0.765  -8.5
       246    173.057    580.145     0.460     0.232 -87.0
       247   1897.727    581.840     0.537     0.533  31.3
       248    393.967    613.709     5.548     3.261  33.0
       249    325.819    603.216     2.962     1.269  34.7
       250   1647.129    599.205     1.885     1.010   4.1
       251    961.978    590.904     0.539     0.531  87.4
       252   2016.499    592.549     0.634     0.474  67.9
       253   1122.808    628.303     6.056     2.481 -45.4
       254    585.871    606.136     0.353     0.331  64.0
       255    755.252    607.193     0.613     0.597 -27.0
       256   1799.498    618.242     0.569     0.548  57.4
       257   1019.599    625.620     0.678     0.637 -88.1
       258    282.693    625.383     0.795     0.416 -54.2
       259    448.038    627.128     0.633     0.616  62.6
       260   1152.929    630.571     0.644     0.523 -21.2
       261   1582.060    625.944     0.374     0.369   4.8
       262    689.664    631.790     1.125     0.523 -29.0
       263    568.710    832.030   107.745     7.505  11.1
       264   1905.469    632.651     0.519     0.498  80.3
       265    877.892    634.154     0.533     0.521  17.4
       266    864.398    631.557     0.516     0.469  49.5
       267   1868.853    644.629     5.618     0.696   1.6
       268    179.896    645.970     0.538     0.506 -88.3
       269     57.157    710.362     7.817     3.688  55.3
       270    329.271    643.239     0.458     0.439  21.2
       271   1982.291    643.659     0.505     0.485 -47.3
       272    202.052    648.902     0.416     0.372  81.4
       273   1352.484    656.415     0.757     0.665 -67.0
       274    976.003    657.704     1.070     0.610 -70.8
       275    784.370    658.056     0.794     0.640  78.6
       276    893.125    658.503     0.540     0.537  64.2
       277    196.343    671.775     0.785     0.698   1.0
       278     69.692    711.949     9.218     0.493  34.6
       279     76.421    681.497     0.796     0.764  78.9
       280    261.104    680.374     0.764     0.737  83.2
       281   1924.205    732.193     9.048     2.562  59.4
       282   2037.675    673.897     0.468     0.304  -0.2
       283    368.479    686.504     0.800     0.756 -18.1
       284   1478.843    705.241     2.270     0.744  81.6
       285    423.200    707.722     6.112     0.964 -13.9
       286    613.513    700.356     3.838     0.496 -16.3
       287   1745.638    699.419     1.530     0.555 -49.8
       288    108.151    731.913     6.479     0.955 -33.7
       289    505.719    699.391     0.922     0.582 -36.0
       290   1172.510    705.887     0.760     0.746  64.1
       291     67.315    811.466    10.379     4.048  81.8
       292    646.166    709.796     0.819     0.784  80.2
       293   1716.205    741.255    12.142     0.752 -15.0
       294   1028.113    714.487     2.325     0.805  -1.5
       295   1772.671    708.564     0.497     0.468 -76.6
       296    834.844    712.991     0.609     0.591 -86.2
       297    203.075    822.768    13.682     4.676 -72.0
       298    903.765    729.674     0.749     0.735  64.7
       299    898.428    731.074     0.875     0.497 -71.9
       300   1678.827    732.211     0.854     0.780 -47.9
       301    232.637    734.232     0.549     0.533  88.7
       302   1039.514    737.576     0.657     0.637  60.4
       303     26.709    735.918     0.651     0.640  65.8
       304    320.707    743.428     0.830     0.645  80.5
       305    353.578    740.065     0.513     0.451  -7.7
       306   1144.987    737.279     0.841     0.267 -26.9
       307    778.486    759.106     2.149     1.058 -81.1
       308    383.879    776.794    10.565     0.518  17.5
       309   1304.534    757.909     0.813     0.807 -14.2
       310   1985.516    754.685     0.522     0.489  55.2
       311   1134.590    762.484     1.171     0.475  68.4
       312    672.515    773.621     2.068     0.995  71.6
       313   1017.897    754.558     0.497     0.397 -86.1
       314    755.632    766.438     0.915     0.774  25.1
       315   1581.018    774.322     5.143     0.564  -9.4
       316   1039.880    775.917     0.708     0.693 -20.3
       317    663.792    775.314     0.684     0.656 -47.6
       318    857.890    773.255     0.446     0.380  86.0
       319   1976.852    776.096     0.642     0.601  44.2
       320    608.115    775.588     0.492     0.319 -87.8
       321   1752.474    779.586     0.505     0.495  49.1
       322   1446.442    793.270     0.788     0.777 -80.6
       323   1842.984    878.068     9.089     6.743 -86.0
       324   1639.133    806.346     3.451     0.759 -28.1
       325    680.316    795.277     0.546     0.531 -86.3
       326   1625.667    841.023     5.887     2.501 -75.4
       327     41.897    794.933     0.395     0.376 -42.7
       328   1498.325    805.923     0.984     0.513  35.8
       329    302.533    801.410     0.663     0.238  44.1
       330   1559.474    809.359     0.680     0.647  82.9
       331   1825.363    810.632     0.780     0.239 -49.3
       332   1651.528    819.332     0.917     0.813  -5.4
       333   1087.011    822.760     2.056     0.838  11.1
       334   1142.758    816.923     0.660     0.604  44.5
       335   1604.419    814.363     0.493     0.481  -4.4
       336   1483.645    830.466     1.117     0.769 -54.5
       337   1352.837    836.412     0.861     0.808 -66.5
       338    167.838    851.507     7.445     0.953 -23.3
       339   1611.142    839.704     1.025     0.681 -40.1
       340   1384.772    847.117     0.700     0.681  81.2
       341    290.395    880.920     4.677     0.686  62.0
       342    605.517    848.005     0.719     0.706 -51.9
       343   1631.163    885.619     8.965     1.966  35.6
       344   1777.092    861.207     1.363     0.885  85.6
       345   1568.413    860.692     2.148     0.576 -40.5
       346   2005.392    856.995     0.567     0.313   0.6
       347    821.024    863.925     0.867     0.740  23.6
       348   1906.939    924.016    15.744     7.465 -13.0
       349     26.608    898.568     4.952     0.808  86.7
       350    470.734    868.386     0.799     0.695  43.9
       351   1754.601    878.942     6.520     1.156  11.7
       352   1556.329    875.838     1.419     0.782  78.3
       353   1007.641    866.172     0.591     0.562  22.2
       354   1093.335    868.168     0.734     0.667 -45.2
       355    753.802    874.492     1.863     0.570 -50.7
       356    517.887    866.138     0.345     0.316 -88.6
       357   1273.590    869.699     0.641     0.606  21.9
       358    495.705    874.693     0.599     0.593  34.9
       359   1130.230    885.651     1.353     0.824  70.2
       360    505.829    879.989     1.088     0.881  -7.8
       361    200.873    875.406     0.512     0.333 -89.2
       362   1306.281    885.998     1.588     0.832  12.3
       363   1933.188    883.526     0.701     0.688   8.4
       364   1286.169    885.932     0.578     0.517 -68.9
       365    187.671    896.529     0.844     0.669  79.2
       366   1167.629    896.065     0.533     0.450 -23.9
       367   1861.940    902.598     0.655     0.646 -80.5
       368    942.846    909.549     1.224     0.778  89.3
       369    348.078    927.930     2.717     1.143  17.8
       370     15.736    926.773     0.893     0.593 -52.1
       371    285.964    917.427     0.495     0.186  89.9
       372   1908.855    933.248     1.100     0.856  88.2
       373    291.835    933.892     5.089     0.795   7.4
       374   1724.757    943.458     3.807     1.876 -18.7
       375    874.624    940.166     5.725     0.620  19.6
       376   1603.611    958.810     4.779     1.350 -54.4
       377    548.733    939.744     1.072     0.642  36.5
       378    210.800    946.267     3.329     0.632  40.4
       379    944.945    985.111    11.287     5.857  21.3
       380    305.263    952.320     0.878     0.704  80.0
       381     85.898    965.945     5.656     0.711  15.9
       382    829.603    947.422     0.526     0.454  46.8
       383   1536.549   1013.233     8.828     1.180  64.3
       384   1246.553    953.721     0.498     0.448   5.7
       385   1871.094    958.844     0.697     0.673 -39.0
       386    735.436    962.253     0.935     0.789 -55.7
       387   1446.144   1099.199    16.248     4.276  87.2
       388    786.082    963.144     0.763     0.744 -31.9
       389   2032.388    966.786     2.642     0.527 -20.7
       390   1406.411    970.443     0.607     0.480  72.8
       391    350.462   1013.710     6.014     0.727  81.1
       392   1966.379   1000.996     6.194     1.830  39.4
       393    997.435    986.771     1.880     1.019  -7.3
       394   1723.109    995.109     2.262     1.109  11.8
       395     59.383    993.756     0.843     0.802  84.4
       396    905.152    992.816     0.805     0.723 -68.7
       397   1043.352   1000.802     1.681     0.619 -56.8
       398    137.623   1077.150    12.044     0.746  60.5
       399   1308.902    989.515     0.527     0.404 -60.1
       400    469.585    997.617     0.689     0.531  78.5
       401    126.675   1009.650     4.494     0.747 -15.4
       402   1731.887   1115.221    16.793     2.247 -63.7
       403   1878.613   1019.013     6.132     0.632  20.6
       404    400.897   1006.402     0.671     0.530  75.4
       405    456.621   1015.051     0.662     0.450  43.4
       406   1811.151   1042.596    12.170     2.187   5.7
       407   1260.587   1014.295     0.493     0.456   4.7
       408    850.417   1021.236     0.652     0.504 -48.8
       409   2005.519   1024.580     0.840     0.548  55.6
       410   1753.377   1025.600     0.653     0.633  44.9
       411   1467.716   1024.989     0.671     0.589 -27.9
       412    393.505   1035.743     1.189     0.707  43.1
       413   2008.422   1051.388     3.283     1.091 -46.6
       414   1155.103   1098.650     6.146     1.175 -84.1
       415    378.763   1040.537     0.744     0.722 -66.3
       416    700.129   1039.788     0.695     0.644  42.5
       417   1602.742   1092.545     7.534     1.860 -75.3
       418    284.585   1053.705     1.957     0.934 -51.9
       419    984.529   1048.774     0.680     0.659  41.3
       420   1884.282   1062.320     0.995     0.863 -70.5
       421   1247.953   1053.781     0.423     0.210 -85.6
       422   1403.441   1054.945     0.497     0.349  -1.5
       423   1809.666   1072.125     3.004     0.606 -31.4
       424    807.768   1074.507     1.066     0.556 -76.9
       425   1342.333   1076.259    12.087     0.512   1.4
       426    500.703   1077.170     4.022     0.528 -10.8
       427   1820.905   1078.491     1.333     0.567   3.9
       428   1494.589   1087.725     4.276     0.968  -0.0
       429    275.706   1084.158     0.766     0.760 -25.2
       430    229.304   1083.257     0.628     0.610  80.2
       431   1951.980   1087.130     0.601     0.551  32.9
       432    538.758   1088.947     0.428     0.325   0.0
       433   1859.531   1095.286     0.619     0.587 -50.8
       434   1104.556   1099.547     0.924     0.863 -70.4
       435     74.545   1093.223     0.663     0.452  20.0
       436    300.767   1098.311     0.556     0.508 -41.1
       437   1128.799   1114.483     2.097     0.618  69.9
       438   1397.146   1109.323     2.801     0.699  18.7
       439    213.026   1098.579     0.635     0.593 -31.9
       440     29.127   1116.175     0.538     0.473  -2.4
       441     51.982   1125.085     1.606     0.706  41.2
       442    713.634   1115.922     0.482     0.371  -3.0
       443    720.381   1135.408     6.277     0.892  17.6
       444   1511.480   1123.467     0.510     0.489 -44.1
       445    481.352   1138.011     0.955     0.797  74.3
       446    636.124   1148.043     3.307     2.038  42.7
       447    331.306   1135.598     0.713     0.706  21.5
       448   1546.683   1146.289     4.728     1.407  11.2
       449    992.060   1138.194     0.498     0.471 -64.9
       450    722.536   1143.162     0.545     0.477  -3.3
       451    487.144   1187.312     6.897     1.730  47.5
       452   1453.198   1150.239     0.705     0.680  53.3
       453   1941.399   1162.122     1.264     0.832 -36.4
       454    683.986   1156.903     0.526     0.505 -88.8
       455   1450.590   1176.579     5.054     1.529  22.4
       456    615.145   1169.203     2.357     1.538  47.3
       457   1916.660   1213.459     6.836     0.496 -85.2
       458   1270.730   1184.783     3.158     1.154  79.3
       459      7.663   1167.558     2.395     1.295  27.8
       460   1157.691   1157.912     0.701     0.628   1.6
       461    136.866   1173.887     1.515     0.731  75.9
       462    845.555   1159.621     0.523     0.505 -41.4
       463   1701.145   1180.271     1.925     1.135  85.8
       464    298.564   1170.988     0.833     0.667  67.4
       465     84.800   1178.033     0.498     0.402   8.7
       466    514.725   1183.444     0.725     0.713  13.7
       467   1155.489   1220.154     5.439     0.949  69.1
       468    165.613   1925.263     1.386     0.458 -62.7
       469   1512.498   1024.950   665.679   121.060  88.5
       470    267.495    201.868   213.449     1.760  90.0
       471    112.703   1553.978     0.697     0.656  51.2
       472   1189.123   1551.580     1.029     0.658  65.0
       473    354.645   1526.433     7.686     0.492  28.3
       474   1697.512   1488.978    28.808     0.767 -50.6
       475   1574.918   1511.219     2.890     0.513 -38.9
       476   1374.540   1507.166     2.357     0.793 -41.4
       477   1811.003   1501.124     0.483     0.415  31.6
       478    144.576   1498.725    14.997     0.514   0.9
       479   1831.383   1487.431     6.950     2.824  18.0
       480    561.470   1479.185     4.350     0.544 -62.7
       481    570.916   1469.111     0.416     0.397  75.4
       482    618.676   1465.816     1.814     0.959  31.1
       483   1513.733   1880.980     2.998     0.596  61.8
       484    824.766   1887.373     1.322     0.789  82.8
       485   1859.429   1854.216     1.611     0.900 -27.5
       486    297.279   1894.811     3.522     0.549  26.4
       487   2028.425   1771.165     0.778     0.726  86.3
       488    632.231   1798.451     5.321     0.721 -84.8
       489    250.739   1886.870     0.559     0.508 -71.1
       490    661.227   1775.888     2.603     0.297 -36.4
       491    684.791   1863.097     9.812     0.523 -76.6
       492   1474.960   1772.607     0.873     0.857  85.7
       493   1150.246   1773.934     1.009     0.854 -40.2
       494    124.970   1556.545     0.730     0.330  34.9
       495    181.614   1880.631     1.403     0.918 -34.6
       496    738.879   1806.953     1.345     0.505 -26.2
       497    839.202   1875.574     1.291     0.817 -80.0
       498    188.754   1643.024     0.782     0.769 -69.4
       499    373.948   1771.370    15.156     0.799 -19.2
       500   1712.163   1880.006     0.534     0.507 -63.9
       501   1469.050   1846.717     1.134     0.845   0.8
       502   1954.082   1850.884     0.561     0.402  64.8
       503   1508.247   1847.789     0.847     0.756  26.4
       504   2018.043   1865.942     6.235     0.643  -4.4
       505   1802.390   1831.390     1.246     0.631 -48.6
       506   1073.831   1802.179     0.588     0.569 -36.3
       507    732.182   1849.824     8.964     1.461   5.2
       508   1400.753   1840.800    11.243     0.548 -33.3
       509   1400.552   1831.455     0.935     0.280 -32.1
       510   1776.914   1728.490     2.948     0.736 -88.5
       511    285.835   1832.242     7.773     0.542  17.5
       512   1129.208   1712.778     6.149     0.507  -3.8
       513   1105.263   1832.586     5.967     1.030   5.4
       514     87.242   1821.953     4.648     1.731  80.4
       515     30.901   1820.099     1.172     1.025 -76.5
       516    163.929   1826.035     0.469     0.358  -3.2
       517    278.772   1819.025     1.082     0.523  76.1
       518    666.430   1816.372     6.230     0.492  29.3
       519    821.004   1795.688     7.457     0.498  44.3
       520    399.930   1818.588     0.505     0.348  87.4
       521   1571.263   1813.242     0.765     0.756 -24.5
       522   1016.007   1813.305     0.460     0.182 -89.3
       523   1415.559   1799.980     2.726     0.792  18.1
       524   1337.956   1775.877     0.827     0.624 -30.1
       525    914.347   1787.714     7.129     0.598 -75.7
       526   1866.397   1755.776     4.920     0.437  -1.6
       527   1083.200   1777.230     0.685     0.681 -34.9
       528    526.481   1767.103     1.221     0.744  34.8
       529    586.978   1779.190     3.137     1.520 -34.1
       530   1400.707   1786.760     0.754     0.654  14.9
       531    969.071   1783.787     1.738     0.897  16.0
       532   1312.038   1778.666     0.603     0.470   5.0
       533    236.607   1780.251     0.772     0.744 -81.1
       534   1914.159   1782.441     1.055     0.526  43.0
       535    588.195   1767.968     4.880     0.720 -13.8
       536   1983.363   1733.274    26.552     1.874  43.4
       537    683.592   1745.031     3.890     0.775  62.4
       538   1343.129   1758.403     0.743     0.650  80.3
       539    831.293   1756.933     0.488     0.441  31.2
       540   2033.843   1766.640     0.547     0.531 -83.1
       541    288.572   1690.671     0.659     0.642 -10.3
       542   1447.111   1738.798    13.213     0.473 -36.4
       543    723.912   1675.522    13.144     0.520 -30.2
       544   1390.870   1751.135     0.515     0.458   8.7
       545    886.706   1744.155     3.889     1.203  25.0
       546    710.181   1748.578     7.819     0.598  -9.3
       547   1822.205   1708.306     0.537     0.484  66.4
       548    994.200   1747.825     0.617     0.594  82.4
       549    631.708   1744.943     0.857     0.751  65.9
       550    668.055   1723.764     8.570     0.584 -74.3
       551    649.671   1732.078     0.470     0.269  -1.0
       552   1667.488   1734.401     0.512     0.496  60.4
       553    238.931   1682.397     0.781     0.714  16.7
       554   1303.391   1653.899     0.704     0.690 -70.4
       555   1227.342   1689.796     0.475     0.403   0.4
       556   2024.547   1715.950    10.147     1.481 -27.9
       557    862.031   1703.064     0.593     0.579 -10.2
       558   1694.493   1692.777     0.568     0.487 -67.0
       559    307.398   1690.823     0.709     0.668  32.7
       560    571.859   1722.129     0.795     0.709  67.3
       561    323.929   1711.803     0.593     0.561 -29.9
       562    694.742   1699.071     0.621     0.606 -82.7
       563    444.116   1701.604     0.676     0.633  27.7
       564    936.462   1706.722     0.686     0.599 -80.2
       565   1180.495   1693.956     2.120     0.482 -33.7
       566    609.902   1682.658    11.963     0.554  -4.1
       567    802.834   1687.087     0.540     0.435  81.3
       568   1022.047   1669.056    18.899     1.587 -15.6
       569    607.723   1666.849     7.230     0.556 -66.4
       570    421.839   1654.287     0.714     0.698  55.5
       571    338.156   1656.391     0.682     0.671  -4.6
       572   2013.007   1662.559     0.844     0.793  71.8
       573   1580.059   1659.886     0.433     0.372 -88.5
       574     17.052   1656.333     8.653     0.797  23.3
       575    805.685   1614.822     0.641     0.603 -67.6
       576    765.988   1602.914    10.402     0.754 -76.9
       577   1357.519   1656.834     0.500     0.372   1.2
       578   1245.422   1598.069     5.947     0.726 -88.1
       579   1984.172   1611.507     0.597     0.548  39.1
       580   2021.496   1238.601     7.647     0.773  52.8
       581   1201.008   1623.376     0.564     0.303 -90.0
       582   1374.477   1613.067     4.137     1.601  43.7
       583    928.277   1624.413     0.971     0.607  45.3
       584   1774.379   1634.252     1.347     0.616  63.9
       585     74.420   1621.329     2.266     0.675 -36.3
       586    807.417   1635.458     8.953     0.588   6.8
       587    120.497   1623.371     5.591     0.511 -83.1
       588   1142.976   1632.760     0.456     0.353 -89.2
       589   1264.027   1635.522     0.763     0.759  54.0
       590    196.738   1580.909     3.178     1.083 -83.8
       591    354.484   1616.619     8.532     4.168  65.9
       592    316.544   1619.244     0.501     0.426 -11.1
       593    547.527   1617.579     0.563     0.552 -17.6
       594    225.814   1575.733     5.305     0.505 -73.1
       595    436.876   1597.102     1.032     0.778 -17.1
       596    743.929   1583.935     0.482     0.256 -87.3
       597   1207.561   1603.527     0.856     0.382 -51.6
       598    176.182   1582.443     0.610     0.551  51.0
       599    954.194   1587.230     0.735     0.672 -72.2
       600   1699.499   1583.549     0.502     0.496  31.9
       601    336.701   1586.549     0.779     0.752 -51.8
       602   1634.656   1584.154     1.495     1.283 -68.4
       603   1481.283   1591.002     0.787     0.756  61.6
       604   1679.885   1582.501     0.864     0.840  33.5
       605    951.201   1579.991     0.401     0.268   1.2
       606   1206.519   1525.185     0.794     0.688  33.3
       607   1587.883   1576.521     0.925     0.814  27.5
       608   1213.907   1565.688     0.641     0.634 -83.4
       609   1937.590   1530.541     9.683     0.710 -38.1
       610    835.530   1562.560     0.845     0.766  37.0
       611   1832.357   1541.292     0.637     0.496  35.0
       612   1401.797   1554.262     0.451     0.420  88.4
       613   1384.398   1365.022     0.644     0.614  78.1
       614    771.878   1556.541     0.803     0.740  52.3
       615    584.145   1559.252     1.261     0.905 -49.4
       616   1787.505   1557.762     0.505     0.420 -14.7
       617    549.064   1548.247     0.691     0.564 -52.8
       618    404.615   1545.432     0.501     0.481  57.6
       619   1029.342   1541.842     1.204     0.731 -70.2
       620   1444.456   1417.416     0.501     0.490  31.0
       621   1571.789   1531.287     2.333     0.692  27.0
       622    347.000   1498.401     0.906     0.289  90.0
       623    410.751   1486.929     0.450     0.429  -3.1
       624    309.843   1512.051     0.646     0.596 -26.8
       625    920.129   1535.579     0.679     0.644  15.8
       626   1756.853   1516.365     2.130     1.548 -14.0
       627    132.413   1488.458     0.505     0.486 -54.0
       628    180.390   1518.351     0.578     0.483 -77.3
       629    470.764   1523.017     3.143     0.842  49.9
       630     76.656   1507.399    11.552     0.507  34.0
       631   1932.738   1513.104     1.461     0.656   9.9
       632     44.019   1470.147     0.883     0.797 -51.5
       633    836.144   1509.330     0.796     0.756  80.1
       634   1454.549   1505.965     0.888     0.738  40.4
       635   1044.673   1454.510    10.072     0.518   5.6
       636    238.897   1488.414     0.775     0.688 -10.9
       637   1820.466   1901.380     7.831     2.964  14.9
       638    986.051   1483.085     0.561     0.500 -86.1
       639    171.308   1402.389     0.488     0.461 -83.0
       640    445.100   1473.320     0.466     0.300 -90.0
       641   1470.173   1489.148     0.378     0.355  -3.5
       642   1494.142   1460.650     0.477     0.386 -85.9
       643   1217.444   1453.835     1.770     0.870  83.3
       644    605.743   1474.231     6.807     0.525   0.1
       645   1272.732   1461.213     0.864     0.771 -84.5
       646    806.560   1462.192     0.497     0.424   4.2
       647    509.671   1468.569     2.293     0.543  73.8
       648   2023.931   1776.223     1.229     0.577  57.5
       649   1175.142   1890.531    11.958     2.118  39.9
       650    578.263   1431.785    16.468     2.614 -67.5
       651    388.607   1856.404     4.714     1.299  38.6
       652   1991.167   1446.470     8.471     1.861  34.6
       653   2020.507   1452.156     3.488     0.506  54.2
       654     62.497   1903.090     0.534     0.514  11.8
       655    167.428   1409.841     1.230     0.832  -5.7
       656   1972.167   1412.986     1.522     0.668  -5.6
       657   1000.279   1842.106    20.761     5.801 -37.0
       658   1739.027   1414.082     7.318     2.951  19.2
       659     58.388   1444.349     1.099     0.497   9.8
       660    385.590   1418.364     1.040     0.549  -6.4
       661    810.598   1442.547     4.124     1.313 -40.5
       662    489.787   1375.302     0.983     0.554 -19.4
       663   1974.123   1434.795     3.919     0.523  22.8
       664   1515.333   1906.649     0.700     0.414  66.4
       665    373.055   1438.447     0.527     0.516  11.0
       666   1513.503   1926.890     0.554     0.522  29.3
       667    249.811   1930.386     0.651     0.559 -15.2
       668     57.163   1418.276     0.448     0.368  82.3
       669   1367.381   1422.347     0.900     0.533 -28.7
       670    485.775   1423.257     2.563     0.751 -67.4
       671    128.714   1424.932     7.629     0.494  15.9
       672   1997.580   1410.490     0.676     0.606  81.2
       673    273.192   1287.237     0.837     0.795 -31.5
       674    550.854   1403.999     0.659     0.595 -55.4
       675    224.710   1417.712     0.488     0.454 -83.8
       676    904.914   1408.546     0.505     0.279 -85.8
       677    194.016   1992.500     9.229     0.956  90.0
       678   1017.633   1299.392     4.584     0.719   1.1
       679    988.937   1301.741     4.758     0.839  13.1
       680   1425.157   1397.905    22.558     0.514   5.4
       681   1981.252   1392.021     0.837     0.832 -59.9
       682   1017.125   1324.676     8.123     1.199  41.7
       683   1919.458   1327.510     0.608     0.535  48.1
       684   1968.236   1400.506     0.629     0.523 -12.6
       685   1963.574   1373.038     2.103     0.568 -20.0
       686    824.000   1349.680     1.406     0.289  90.0
       687    431.804   1392.752     4.954     0.500  -8.8
       688   1224.164   1387.918     0.465     0.458 -37.1
       689   1686.640   1392.268     0.802     0.624  80.4
       690     77.980   1389.747     0.858     0.603  34.2
       691    848.788   1327.438     0.755     0.734  87.9
       692    685.375   1336.281     0.870     0.582 -85.5
       693    122.076   1312.960     2.200     0.957 -64.6
       694   2016.642   1320.518     0.828     0.695  67.6
       695   1468.017   1381.615     4.360     0.512 -20.3
       696   1006.557   1374.793     3.172     0.739  -9.8
       697   1250.901   1337.029     1.979     0.735 -70.6
       698   1122.736   1302.049     2.737     0.517  21.7
       699    827.137   1307.171     1.053     0.203  45.5
       700    230.510   1329.988     0.925     0.841  22.9
       701     19.013   1355.070     5.041     0.512  22.0
       702   1483.870   1326.933     1.746     0.919   4.6
       703    875.945   1352.823     9.230     0.474 -13.1
       704    260.266   1348.032     0.635     0.602 -89.3
       705   1209.581   1350.502     0.565     0.527  89.5
       706    683.681   1351.733     0.494     0.470 -40.9
       707    505.981   1353.133     2.046     0.538  27.3
       708    607.061   1349.419     3.114     0.659  51.5
       709   1940.112   1337.023     7.716     0.502 -37.5
       710    734.339   1346.171     0.772     0.633 -79.8
       711    829.068   1355.908     0.654     0.258  40.2
       712   1116.117   1340.177     0.836     0.652  19.5
       713   1204.847   1337.808     1.673     0.554  18.5
       714    862.102   1339.052     3.621     0.718  -1.8
       715    738.325   1331.800     0.775     0.708  58.9
       716    887.994   1301.539    12.370     3.415 -53.7
       717     63.482   1325.481     0.560     0.551 -49.2
       718   1030.458   1572.328     0.943     0.773  81.7
       719    754.468   1289.649     0.509     0.466  29.8
       720    290.259   1307.309     0.764     0.725 -40.8
       721    892.244   1281.833     0.456     0.436  10.5
       722      9.583   1301.202     3.070     0.864  33.1
       723   1465.676   1294.505     0.849     0.821  77.3
       724    663.290   1301.198     0.841     0.789  -2.9
       725   1570.752   1265.513     4.118     0.776 -19.7
       726     40.776   1287.065     0.864     0.810 -20.5
       727   1798.223   1934.043     1.323     0.703 -33.9
       728   1770.073   1906.822     8.875     2.599  60.6
       729    546.800   1284.075     0.400     0.310   3.1
       730    998.372   1244.536     0.727     0.674 -86.2
       731    811.274   1225.446     0.528     0.451  65.3
       732   1682.185   1267.219     1.384     0.828  80.5
       733   1910.701   1243.280     0.460     0.447  24.7
       734    548.285   1246.878     0.774     0.678  66.2
       735    982.296   1206.418     0.740     0.502 -59.2
       736   1605.244   1924.422     0.934     0.761 -36.8
       737   1182.659   1246.661     0.679     0.666 -51.6
       738    966.753   1607.035     1.857     1.189  11.9
       739    225.358   1955.227     0.606     0.543  57.0
       740    153.294   1228.639     0.504     0.453 -77.4
       741   1971.975   1215.161     0.899     0.854 -17.5
       742   2009.131   1211.721     1.887     0.941 -77.0
       743    610.853   1555.730     0.600     0.572 -59.3
       744   1000.699   1210.567     3.950     0.514  70.1
       745    487.583   1570.636     1.867     1.207   6.2
       746   1385.650   1198.006     0.477     0.228   0.7
       747   1809.286   1210.513     0.538     0.505 -68.5
       748    774.839   1947.877     2.361     0.707  -6.0
       749   1942.840   1724.561     0.755     0.712  46.5
       750   1533.161   1212.462     2.467     0.772 -21.3
       751   1697.891   1218.510     4.554     0.485   4.5
       752   1266.708   1942.186     3.686     0.603  -5.9
       753   1456.678   1576.016     0.519     0.511  59.8
       754    627.729   1196.295     0.642     0.621 -16.5
       755    237.983   1811.772     0.523     0.503  83.4
       756    297.266   1687.632     2.324     0.577   8.6
       757   1370.603   1922.238    25.333     2.375  -9.5
       758   1026.105   1193.368     1.619     0.580  32.1
       759   1227.612   1743.519     0.689     0.655  -6.9
       760    807.744   1933.336     3.115     0.688  21.0
       761   1445.895   1921.969     8.050     0.940  74.6
       762    829.612   1605.287     6.484     0.594  34.3
       763    497.314   1185.843     0.513     0.509  35.8
       764    196.338   1660.124    13.911     1.215 -43.4
       765    163.974   1559.668     0.783     0.781 -34.6
       766    626.953   1182.810     0.858     0.332  15.3
       767    191.226   1603.573     4.363     1.051 -73.4
       768   1758.289   1673.698     0.493     0.467  88.9
       769   1867.551   1669.062     0.639     0.634 -86.1
       770   1789.842   1999.739     8.827     0.884  66.9
       771   1699.254   1672.098     1.478     0.472 -53.9
       772   1008.418   1737.907     0.493     0.434  -2.2
       773    359.640   1726.325     2.462     0.595  83.9
       774    563.345   1570.013     5.845     0.499  40.1
       775   1407.677   1606.619     0.722     0.612 -71.9
       776    694.880   1677.464     0.499     0.324  89.2
       777   1733.040   1717.674     8.924     1.933  44.1
       778   1588.581   2023.648     1.174     0.673 -60.8
       779    586.642   1723.696     3.603     0.775  21.8
       780   1359.413   1737.142     1.005     0.568 -16.2
       781    820.355   1729.845     0.479     0.410   0.7
       782     62.080   1968.243     0.430     0.315 -86.1
       783     89.261   1969.341     1.571     0.414 -36.5
       784    744.385   1745.461     3.928     1.124 -20.8
       785    254.413   1946.080     5.879     0.708  11.3
       786   1647.687   1899.017     0.750     0.696  81.0
       787    546.093   1771.761     0.678     0.602 -29.0
       788   1959.999   1904.882     0.896     0.465  55.5
       789   1010.741   1745.552     0.498     0.438  86.4
       790    188.363   2034.003     0.520     0.457   2.0
       791     96.527   1892.270     4.946     0.536  25.4
       792    524.154   1756.820     0.724     0.681  72.7
       793    746.260   1755.695     0.958     0.260  67.5
       794   1334.922   1968.020     1.262     0.808 -36.0
       795   1565.722   1964.022     0.817     0.748  50.6
       796     75.166   1916.516     0.502     0.369 -81.8
       797   1204.743   2023.872     3.263     1.734 -78.8
       798    735.587   1894.302     1.007     0.541  53.8
       799    296.267   1917.557     0.688     0.666  36.2
       800    459.984   2000.745     0.904     0.620  24.8
       801   1782.411   1756.782     0.593     0.268 -36.4
       802   1250.893   1901.126     0.551     0.533 -70.5
       803    915.267   2007.191     0.455     0.393  -0.5
       804   1638.291   1905.922     0.454     0.293  -0.4
       805    877.158   1915.937     4.313     0.971  17.6
       806    699.715   1899.459     1.824     0.694 -49.3
       807   1077.768   1954.162     0.504     0.495 -71.5
       808   1966.125   2009.764     0.561     0.558  55.3
       809   1808.974   1948.679     0.608     0.456  25.1
       810    424.575   1908.379     6.168     0.504  66.0
       811    553.881   1966.717     0.564     0.547 -46.6
       812   1379.917   1953.475     0.662     0.496 -38.5
       813   1726.329   1958.494     6.480     0.934 -71.1
       814   1377.226   1940.445     0.498     0.426 -84.4
       815   1757.243   1958.886     0.665     0.648 -29.1
       816    211.274   1988.223     0.479     0.456   6.9
       817    976.021   1968.589     1.936     1.094 -49.1
       818   1754.755   1950.905     0.553     0.252  44.9
       819   1044.321   2022.924     1.281     0.780 -75.3
       820    173.817   1972.243     4.161     0.939 -63.6
       821   1549.839   1976.260     0.729     0.311  65.4
       822    111.784   1949.247     0.765     0.701 -64.7
       823    943.726   1940.561    22.353     3.885 -27.0
       824   1311.336   2037.430     2.073     0.419 -56.9
       825   1926.865   1947.648     3.384     0.600 -32.8
       826   2039.781   2008.541     0.511     0.398  69.5
       827   1959.464   2009.691     4.563     1.019  58.3
       828   1790.026   2036.092     0.416     0.352  87.3
       829   1893.933   1978.439     1.011     0.522 -60.1
       830   1047.227   1993.233     0.816     0.772 -47.7
       831    338.800   2034.505     0.679     0.405 -45.4
       832   1757.386   2030.491    11.644     0.541  23.4
       833   1389.311   2016.919     0.838     0.763  41.4
       834   1219.657   2030.093     0.989     0.500  89.7
       835    996.561   1983.206     0.973     0.766 -50.1
       836   1449.613   2003.782     0.948     0.650  72.0
       837   2034.762   1960.058     4.513     0.719 -42.9
       838    132.044   1972.235     3.058     2.441 -21.7
       839   1803.184   1991.219     3.089     1.284  29.2
       840   1962.156   1994.943     0.967     0.691 -31.4
       841    602.881   2023.734     1.063     0.779  34.8
