#   1 NUMBER                 Running object number                                     
#   2 X_IMAGE                Object position along x                                    [pixel]
#   3 Y_IMAGE                Object position along y                                    [pixel]
#   4 A_IMAGE                Profile RMS along major axis                               [pixel]
#   5 B_IMAGE                Profile RMS along minor axis                               [pixel]
#   6 THETA_IMAGE            Position angle (CCW/x)                                     [deg]
         1   1569.603     66.202    39.895     0.881 -50.0
         2    941.666     78.195    14.911     3.408  67.8
         3    202.295     43.502    17.056     3.520  48.6
         4    267.461     35.514     9.232     0.518 -89.9
         5   1109.580     39.676    37.591     2.759   6.0
         6   1737.052     26.182     4.377     3.746   2.9
         7     26.151     20.555     1.138     0.640 -66.1
         8   1526.870     10.836     5.225     1.076 -89.4
         9   1129.469     13.896     0.890     0.785 -51.3
        10    871.451     17.180     1.980     0.882 -62.7
        11   1513.107      6.153     1.651     0.305  86.6
        12   1146.340      5.157     1.403     0.783 -75.8
        13    451.016      7.744     0.607     0.592  84.0
        14   1703.128      7.373     0.630     0.334 -82.6
        15    853.974      5.143     0.644     0.629  -8.7
        16    609.040      5.719     0.939     0.565 -53.3
        17   1866.415      1.000   173.144     0.289   0.0
        18   1116.514     16.385     0.741     0.721  49.5
        19   1299.713     21.061     0.762     0.735  56.1
        20    554.311     15.999     0.821     0.735  -0.3
        21    144.104     62.962     6.938     1.078 -52.0
        22   1526.498     49.528     4.216     0.601 -86.4
        23   1428.613     35.515     1.851     0.714  85.0
        24   1191.867     32.916     1.529     0.788  73.8
        25    425.439     27.483     1.088     0.835  -7.2
        26    661.939     31.638     0.741     0.658  27.2
        27      9.928     35.003     0.840     0.503  40.6
        28     16.351     32.574     1.196     0.207 -22.4
        29     93.824     40.896     0.710     0.691  40.4
        30   1384.942     38.075     0.523     0.478  51.6
        31   1758.899     54.404     3.087     0.624  42.5
        32      5.420     66.397     3.894     0.594 -45.6
        33   1220.043     39.234     0.493     0.371  39.1
        34    284.764     79.016     6.145     0.523 -34.4
        35     33.011     70.898     8.998     1.252  -4.9
        36    645.624     96.842     8.568     1.971 -31.0
        37   1226.466     84.323     2.118     1.150 -59.1
        38    331.088     72.391     0.745     0.699  73.0
        39   1090.552     87.694    10.635     1.337  -8.6
        40   1357.450     75.258     0.918     0.495  86.2
        41   1860.596     73.174     0.491     0.413  -1.4
        42    129.217    157.218    10.349     9.395  87.1
        43   1998.804     85.272     1.338     0.975   1.1
        44   1088.013    100.601    10.963     1.792   0.6
        45    439.280     79.218     0.588     0.569 -77.7
        46   1620.648     78.434     0.502     0.471  62.7
        47   1005.731     85.327     0.537     0.525  68.1
        48    422.874     98.662     1.595     0.696 -77.9
        49   1127.811    192.974    17.903     0.489 -50.5
        50   1526.000     88.382     1.184     0.289  90.0
        51   1942.140    247.684    23.273     3.180 -42.0
        52    186.881     95.291     0.482     0.398 -82.3
        53    656.063     98.377     0.734     0.714 -16.7
        54    270.303    121.950     3.590     0.568 -87.6
        55   1300.371    118.176     1.431     0.887 -73.6
        56    705.813    166.913     7.578     0.888 -75.3
        57    870.378    111.371     0.631     0.566  80.8
        58    410.024    148.926     8.600     0.706 -36.1
        59   1805.528    113.825     0.618     0.593 -56.6
        60    380.075    112.366     0.734     0.722 -15.3
        61    242.582    151.705     6.180     1.060 -46.3
        62   1246.490    116.896     1.112     0.614  15.4
        63   1716.490    118.324     0.675     0.650  86.9
        64    126.518    117.006     0.629     0.499  87.0
        65   1143.949    121.227     0.642     0.552 -18.4
        66   1577.640    127.577     0.686     0.677  68.7
        67   1311.719    194.896    10.219     2.909  39.6
        68   1661.163    149.879     3.840     0.736 -44.0
        69   1889.428    130.790     0.495     0.449  -4.4
        70    270.306    142.228     2.117     0.559 -80.4
        71   1224.385    149.132     6.242     0.557 -13.3
        72    942.792    143.203     3.715     0.514  10.2
        73    622.462    142.611     0.761     0.723 -55.0
        74    910.872    142.933     0.578     0.572 -89.0
        75    611.752    148.857     0.777     0.737  59.0
        76   1454.248    151.060     0.777     0.674 -67.2
        77   1432.080    156.595     0.777     0.730  43.6
        78     55.696    151.840     0.661     0.524  32.7
        79   1994.312    167.337     3.067     1.415 -47.7
        80   1722.822    153.950     0.581     0.454  82.1
        81    724.126    221.458    13.753     1.145  35.4
        82   1014.297    166.893     2.599     0.745  27.1
        83   1526.270    158.772     0.889     0.352 -70.7
        84    786.120    160.235     0.557     0.548  44.7
        85    328.610    175.302     1.273     0.721 -34.7
        86   1001.086    183.341     1.735     0.679  71.1
        87    371.424    169.024     0.663     0.608 -40.0
        88   1550.653    270.783    10.999     1.026  65.0
        89   1283.847    177.089     0.902     0.774 -43.5
        90    588.659    178.711     0.640     0.587  68.9
        91   2016.487    177.493     0.543     0.516  43.2
        92   1809.120    175.895     0.803     0.351 -11.8
        93    508.804    206.286     2.601     0.750 -78.6
        94   1516.728    186.081     0.447     0.305  -8.2
        95    681.686    188.969     0.550     0.547  80.5
        96   1009.708    197.959     0.898     0.770 -67.6
        97    175.136    201.070     1.219     0.819  -5.6
        98   1839.247    194.290     0.535     0.506  -2.4
        99     15.105    206.085     2.042     0.671 -32.9
       100   1428.760    199.567     0.740     0.719 -83.9
       101    534.507    197.157     0.501     0.382   5.2
       102    270.000    206.688     1.747     0.289  90.0
       103    962.851    210.055     1.194     1.026 -89.6
       104    478.386    203.387     0.755     0.740 -42.9
       105     49.377    202.401     0.619     0.302 -45.5
       106   1689.478    216.972     1.067     0.835 -71.8
       107   1025.862    205.420     0.526     0.293 -65.4
       108   1167.128    719.565    27.633     9.737 -78.4
       109   1815.539    214.086     0.589     0.558  54.5
       110   1517.824    218.506     0.657     0.625 -88.9
       111   1867.919    217.374     0.568     0.552 -29.0
       112   1698.628    223.389     1.860     0.494  29.2
       113   1366.239    304.453    11.567     0.500  55.0
       114    841.369    224.714     0.541     0.495 -65.9
       115   2039.985    228.264     0.654     0.313  89.3
       116   1380.047    271.229     5.018     1.263  82.7
       117    754.237    250.852     4.294     0.515 -39.2
       118    769.914    239.864     1.085     0.670  68.5
       119   1343.699    232.618     0.742     0.703  -4.8
       120   1089.907    229.729     0.468     0.409 -84.3
       121     52.166    230.006     0.470     0.458  -8.4
       122   1684.915    238.379     0.753     0.703  56.4
       123    543.311    276.386     7.294     0.825  34.4
       124   1603.046    244.399     0.983     0.941  13.7
       125    178.695    239.925     0.683     0.644  37.5
       126    161.846    242.794     0.551     0.441 -72.8
       127   1508.672    240.910     0.493     0.459 -14.5
       128   1445.147    239.302     0.460     0.353  84.1
       129    533.065    292.147     6.227     0.508 -75.9
       130   1027.673    245.979     0.551     0.322   0.4
       131    475.661    259.481     0.647     0.560  66.3
       132   1451.891    259.799     0.614     0.594 -19.3
       133   1041.201    352.858    16.835     0.535  31.9
       134    732.883    304.130     6.655     1.630  35.0
       135   1819.956    276.779     0.687     0.641  66.9
       136    705.275    276.171     0.638     0.585 -77.7
       137   1312.830    283.450     0.940     0.721 -82.0
       138   1128.490    287.612     5.074     1.076  14.2
       139     77.957    291.754     1.125     0.890 -84.4
       140    959.595    292.521     0.960     0.881 -71.0
       141   1212.715    285.394     0.631     0.619  80.5
       142   1237.419    280.323     0.498     0.463 -21.5
       143    782.693    308.341     6.554     1.743  25.1
       144    886.570    298.158     0.774     0.755  65.8
       145   1284.140    298.021     0.401     0.370  -6.5
       146   1246.119    299.066     0.703     0.423  25.6
       147    471.429    313.179     1.175     0.674 -83.3
       148   1537.978    310.673     0.842     0.807  67.7
       149    834.556    310.439     0.721     0.692 -13.3
       150   1398.916    398.652    14.597     2.854  52.6
       151    938.804    317.658     0.938     0.809 -35.3
       152    748.056    325.005     4.052     1.341   7.7
       153   1697.766    330.825     3.744     0.776  28.8
       154     35.796    321.632     0.512     0.451  84.9
       155    833.422    395.030    10.599     1.445  71.6
       156   1632.970    372.673     7.065     1.077  51.6
       157   1499.659    358.417     3.962     0.648  53.0
       158   1752.714    331.942     0.497     0.455 -15.5
       159    614.119    335.351     0.527     0.490  68.6
       160    438.574    351.540     2.900     0.682 -36.0
       161   1684.229    339.270     0.448     0.417 -69.9
       162    919.104    347.940     0.778     0.536  59.0
       163    513.897    416.583    11.457     2.783 -74.3
       164   1838.525    354.619     0.721     0.668  46.2
       165      7.658    516.201    16.070     0.917  89.9
       166    434.046    365.388     1.444     0.921 -44.9
       167   1994.982    364.770     7.942     0.548   6.2
       168   1038.255    363.056     0.742     0.652 -41.3
       169   1423.923    400.647     5.707     0.949 -80.0
       170    385.619    373.234     6.139     0.567  -5.1
       171   1025.243    369.169     0.548     0.516 -75.6
       172    186.464    381.675     1.729     0.535  42.6
       173    791.387    374.516     0.500     0.486  78.4
       174     58.814    384.940     0.607     0.387  85.4
       175   1574.242    393.146     1.969     1.038  40.3
       176    857.536    386.161     0.768     0.738  40.9
       177   1990.139    430.978     8.364     0.996 -45.4
       178   1453.224    404.606     2.662     0.551 -89.8
       179    353.167    390.158     2.162     0.426 -25.8
       180   1622.959    435.210     6.930     0.936  87.3
       181   1899.285    382.835     0.673     0.611 -23.1
       182    993.991    400.276     1.706     0.990  29.4
       183   1682.511    417.006     8.921     0.584 -25.2
       184     50.355    394.014     0.685     0.662 -85.7
       185    897.689    388.199     0.465     0.407  11.9
       186    103.626    395.648     1.131     0.855  18.4
       187   1937.216    393.217     0.561     0.547 -83.2
       188     87.653    406.242     5.268     1.317   6.3
       189    735.302    406.342     4.245     1.119  -6.3
       190   1854.471    548.126    37.987     1.034 -29.6
       191   1200.508    504.438    14.157     8.378 -55.8
       192    675.268    412.761     1.012     0.796  68.4
       193   1619.372    412.108     0.784     0.768 -63.3
       194   1633.518    407.871     0.516     0.362 -20.7
       195   1620.732    420.027     0.782     0.706  59.1
       196   1684.580    457.694     4.994     0.944  67.6
       197   2007.955    417.452     0.585     0.537   4.8
       198   1372.522    418.892     0.585     0.554 -40.3
       199    491.342    423.728     0.703     0.685  72.9
       200    830.964    426.062     0.709     0.382 -71.5
       201    806.101    436.206     1.207     1.036  -2.6
       202    794.818    426.986     0.514     0.386 -88.7
       203   1115.754    443.963     2.970     0.578  34.9
       204    528.874    440.638     1.909     1.285  48.3
       205    921.314    466.458     5.866     0.506  52.5
       206    933.767    432.063     0.610     0.594 -32.5
       207   2030.377    439.609     0.749     0.737  85.5
       208    956.788    569.905    14.923     0.512  85.4
       209   1601.682    470.690     3.592     0.822 -89.1
       210   1705.457    448.131     1.714     1.173   6.8
       211    710.698    443.952     0.751     0.657 -57.3
       212   1833.146    502.428    14.696     2.534  28.8
       213    177.330    443.111     0.473     0.421 -14.7
       214   2021.224    448.601     1.685     0.498 -14.8
       215   1264.609    449.932     0.862     0.812  18.2
       216      4.042    457.087     1.239     1.071  60.9
       217    231.780    451.795     0.635     0.612 -66.4
       218   2036.850    453.915     0.495     0.482 -54.0
       219   1380.140    456.951     0.347     0.284   2.1
       220   1019.507    472.060     2.531     0.810  28.6
       221    783.290    479.599     3.170     0.554  54.3
       222   1465.060    468.506     1.107     1.049  46.1
       223    484.705    487.301     3.148     0.825 -51.5
       224   1515.321    465.873     0.589     0.523  72.6
       225    620.084    467.596     5.365     0.494 -11.5
       226   1905.790    481.187     3.772     0.616 -42.2
       227    585.572    468.204     0.927     0.813 -10.9
       228   1490.743    475.741     2.240     0.564  30.6
       229    211.983    471.635     0.671     0.618 -30.6
       230    311.784    473.721     0.491     0.456  45.8
       231   1577.708    484.194     2.841     0.597  10.6
       232   1801.120    485.790     1.157     0.303  82.3
       233   1328.510    483.479     0.719     0.526  81.8
       234   1709.926    488.135     1.089     0.649 -72.0
       235   1749.804    488.791     0.731     0.609  70.3
       236   1741.045    508.353     7.923     0.646 -16.5
       237    680.749    491.503     0.712     0.685 -48.0
       238   1934.432    503.452     2.643     0.882  17.1
       239    176.209    501.526     0.975     0.792  76.0
       240     92.995    500.997     1.018     0.520  56.7
       241   1085.346    543.230     9.851     0.567 -34.9
       242    107.808    510.248     1.568     0.601  77.1
       243   1880.389    513.432     0.970     0.727 -89.2
       244   1118.669    514.801     0.610     0.564 -75.5
       245    825.947    521.165     2.397     1.018  60.2
       246   1644.633    510.643     0.668     0.654  14.7
       247   1465.584    515.798     0.688     0.622  76.4
       248   1457.626    529.409     2.184     0.474  87.4
       249   1423.480    521.308     0.963     0.800 -43.0
       250   1766.914    552.604     4.912     0.537 -70.8
       251   1769.193    522.413     0.707     0.665  69.0
       252    855.932    523.177     0.971     0.535  -5.3
       253   1801.929    524.459     0.538     0.514 -78.4
       254   1066.933    521.940     0.408     0.394  -1.9
       255    777.080    523.126     0.651     0.281 -87.9
       256   1152.428    549.503     2.951     1.813  55.0
       257    211.031    525.841     0.513     0.473  42.3
       258   1189.158    549.127     2.752     0.792 -51.9
       259    472.951    543.031     4.822     0.838   7.4
       260   1141.978    534.109     0.383     0.329  86.5
       261     48.194    537.402     0.684     0.637  85.3
       262    121.387    575.455     6.826     0.665 -43.8
       263   1256.323    544.872     0.996     0.712 -88.9
       264   1650.196    561.744     3.727     2.343  47.8
       265   1437.929    538.787     0.410     0.301  86.4
       266    711.048    611.140    12.582     0.547 -33.2
       267   1582.970    570.510     5.159     0.640  38.7
       268   2024.001    551.546     0.617     0.607  56.3
       269   1410.704    560.523     0.684     0.665  76.2
       270    627.177    553.642     1.588     0.410   9.3
       271    395.401    566.435     0.653     0.608  14.3
       272     61.992    568.290     0.659     0.608   0.8
       273    702.908    590.597     6.026     1.254 -15.0
       274   1840.999    584.614    10.836     0.482  10.9
       275    165.901    584.031     1.531     0.820 -72.7
       276    403.842    618.376     6.389     0.940  62.6
       277   1504.112    641.426     9.519     0.526  54.4
       278    776.645    581.541     0.775     0.639  65.8
       279   1545.953    589.737     1.393     1.008  48.2
       280   1635.860    605.303     7.209     0.501 -20.2
       281    342.045    758.681    22.739     2.990 -78.7
       282   1594.828    616.376     3.753     0.576  74.9
       283    583.944    590.481     0.589     0.525  62.2
       284   1191.842    600.213     0.886     0.706  53.7
       285    500.027    595.984     0.574     0.544 -65.1
       286   1092.918    605.136     0.844     0.768  -4.7
       287   1542.766    603.056     0.837     0.781 -64.5
       288    709.719    602.975     1.117     0.814 -42.6
       289     48.802    621.815    26.907     0.560   5.3
       290    886.684    598.648     0.556     0.528  33.6
       291   1601.183    606.156     0.535     0.521 -68.4
       292   1143.336    613.010     0.815     0.706 -31.2
       293    136.113    715.922    15.609     1.570 -46.5
       294    155.023    675.058    10.725     3.448 -41.4
       295    357.751    626.290     1.041     0.787  19.7
       296    344.779    627.371     0.721     0.666 -16.0
       297   1466.567    620.633     0.515     0.461 -37.7
       298   1837.938    649.038     8.127     2.470  -0.6
       299    811.264    628.143     0.727     0.491  44.3
       300     45.834    647.182     3.482     0.343  84.4
       301   1473.162    629.773     0.733     0.716  19.9
       302   1317.854    629.485     0.559     0.524 -15.4
       303    337.986    627.812     0.616     0.611 -36.9
       304    327.527    635.041     0.874     0.821  40.1
       305    920.763    635.127     1.151     0.343 -72.2
       306   1962.375    655.421     2.793     1.027 -72.4
       307    811.688    681.634     8.899     3.210  46.8
       308   1985.383    651.326     1.804     0.822 -87.6
       309    199.531    638.627     0.655     0.645 -39.5
       310    493.152    641.593     0.657     0.545  62.6
       311    873.078    650.292     1.483     0.513  24.8
       312    857.943    653.751     0.820     0.477 -64.8
       313   1433.923    652.155     0.663     0.628 -76.7
       314   1591.109    649.609     0.561     0.277 -73.0
       315    413.139    691.724     5.112     1.450 -69.7
       316   1976.366    666.767    11.151     0.917  -1.5
       317   1230.544    656.136     0.694     0.664   3.9
       318   1850.672    769.139    17.245     7.018  35.1
       319    159.631    658.117     0.483     0.384   3.6
       320    180.013    661.142     0.462     0.372 -88.6
       321   1077.874    664.362     0.513     0.510 -23.9
       322    536.322    673.485     0.705     0.686  24.8
       323   1255.608    674.867     0.488     0.391   1.4
       324    402.012    679.654     0.676     0.333  83.3
       325   1683.302    757.635    11.053     3.385 -51.4
       326    579.546    685.880     3.530     0.731  -2.5
       327   1113.920    685.401     0.701     0.644  86.7
       328    447.607    706.396     5.578     0.990  25.8
       329    437.479    686.555     0.681     0.596  83.9
       330   1240.314    713.097     4.650     0.538  55.5
       331   1158.700    689.415     0.675     0.586  44.6
       332    684.184    685.806     0.397     0.386 -67.3
       333    333.706    692.095     0.834     0.645 -52.5
       334    187.708    720.924     3.631     0.797  86.7
       335    475.481    753.180     8.150     1.334  68.6
       336    153.143    700.666     0.685     0.512 -52.1
       337    588.587    708.610     3.590     1.203  -4.6
       338   1484.325    736.276     9.171     1.579  24.4
       339    368.575    731.957     3.990     0.750 -54.1
       340    125.747    716.505     1.233     0.599  54.4
       341    849.588    708.928     0.492     0.403   2.2
       342    810.485    709.069     0.512     0.452   4.5
       343   1311.312    715.612     0.659     0.649   0.6
       344    515.349    716.629     0.631     0.592  74.1
       345    644.320    732.903     2.705     0.993 -54.0
       346   1728.707    749.837     5.863     1.700  43.0
       347     40.979    762.717    11.127     4.216   1.0
       348     87.751    723.745     0.797     0.733  58.8
       349   1458.397    755.123     4.917     1.116 -72.3
       350   1208.121    728.568     0.815     0.798 -79.0
       351   1256.698    723.940     0.645     0.423  68.5
       352    667.009    773.684     7.037     2.694 -34.0
       353   1135.053    734.268     0.806     0.775 -21.1
       354    586.822    738.508     0.984     0.635 -72.6
       355   1080.799    740.804     0.650     0.621 -24.1
       356   1974.709    845.681    17.461     2.729 -59.8
       357    565.556    748.976     0.854     0.818  52.2
       358   1921.512    746.296     0.530     0.529  71.5
       359   1469.484    788.154     4.414     1.339  77.0
       360    507.365    772.818     5.553     0.996 -30.7
       361    491.429    758.484     0.785     0.754  11.3
       362    967.993    761.404     0.702     0.429  86.4
       363    398.867    760.038     0.589     0.541  12.2
       364   1397.079    773.886     1.136     0.904  -5.4
       365    645.577    770.814     0.821     0.736  25.0
       366   1174.058    765.775     0.620     0.277 -35.5
       367    244.264    772.311     0.539     0.526  69.4
       368    148.292    773.418     0.625     0.581 -73.1
       369    715.568    783.068     3.013     0.501 -25.1
       370   1017.685    857.946    17.208     0.543  34.3
       371    685.760    791.124     3.180     0.805 -16.5
       372   1709.646    782.161     0.515     0.507  51.5
       373   1027.132    813.168     4.164     0.522  49.4
       374   1669.726    799.007     1.436     0.785 -86.4
       375   1672.866    853.240    10.349     0.921 -73.1
       376   1952.691    796.583     1.215     0.906 -14.8
       377   1721.000    792.709     0.595     0.289  90.0
       378   2007.709    793.098     0.611     0.555  58.8
       379    930.614    798.881     1.183     0.695  18.2
       380   1205.833    811.395     1.166     0.931 -18.2
       381   1713.067    808.605     5.077     0.521   7.0
       382   1593.182    804.333     0.645     0.636  60.9
       383   2002.984    820.314     0.939     0.788 -60.1
       384    862.114    858.436     4.820     0.721  83.8
       385    833.454    816.800     0.607     0.567 -86.4
       386    214.441    833.133     1.546     0.825 -71.2
       387    829.941    833.626     0.871     0.465  32.0
       388   1006.534    834.700     1.152     0.626 -13.1
       389   2014.819    923.118    16.970     0.493 -41.7
       390   1801.951    904.614    18.622     0.518 -29.6
       391    449.483    852.208     1.711     0.800  78.3
       392    802.113    840.042     0.447     0.442  -3.0
       393   1455.106    847.964     0.829     0.748 -80.1
       394    407.703    857.317     1.433     0.767  82.1
       395   1150.767    864.679     2.606     1.711  10.2
       396   1103.152    851.070     0.359     0.254  -2.7
       397    293.830    854.505     0.500     0.375 -89.5
       398    460.517    886.673     5.309     0.539 -29.5
       399   1123.093    865.484     0.628     0.540  63.2
       400   1324.969    872.119     1.232     0.656  69.3
       401   1595.070    870.685     1.536     0.750   9.0
       402    882.052    875.373     0.798     0.726   8.3
       403    518.419    883.635     4.518     0.612  12.0
       404   1493.278    877.808     1.012     0.515  88.9
       405    747.242    877.829     1.744     0.951  19.4
       406   1364.670    879.811     0.703     0.683  46.5
       407   1172.511    884.902     1.615     0.502  -6.1
       408    792.077    885.258     0.553     0.331 -88.0
       409   1106.068    886.165     0.378     0.241  75.5
       410    987.796    915.955     4.022     0.644 -51.7
       411   1351.680    936.510     7.125     1.563  54.8
       412    534.849    900.111     0.816     0.781  61.9
       413   1861.941    902.599     0.653     0.644 -83.5
       414   1739.442    906.368     1.613     0.519 -80.8
       415    398.394    898.491     0.566     0.410 -47.1
       416   1314.362    911.432     2.392     0.871 -36.4
       417    550.891    912.405    30.187     0.949   0.8
       418    791.417    925.129     4.703     0.925 -30.8
       419    191.414    968.638     8.034     0.898 -81.5
       420    281.419    906.778     0.494     0.461   9.9
       421    289.040    908.091     0.410     0.386 -80.4
       422    401.808    909.018     1.206     0.317  -4.1
       423    814.416    920.880     0.807     0.725 -44.0
       424    324.880    923.486     1.685     0.629 -32.8
       425    852.432    918.300     0.639     0.619  64.3
       426    469.449    956.357     5.285     0.449 -78.9
       427    915.299    927.403     0.848     0.751 -53.5
       428   1255.187    928.154     0.994     0.793  56.2
       429    530.482    956.133     4.122     0.544 -89.4
       430    184.496    939.542     1.786     1.276   5.7
       431    838.645    939.663     0.921     0.875  53.4
       432    906.928    928.892     0.546     0.532 -63.9
       433    826.038    934.424     0.790     0.603  55.5
       434     13.836    948.992     1.327     0.896  11.4
       435    235.469    938.906     0.499     0.292   1.5
       436    701.049    953.280     0.975     0.844 -74.7
       437    829.556    947.393     0.503     0.482  32.9
       438    488.627    959.074     0.484     0.284   2.4
       439     62.855    960.229     0.637     0.605   1.3
       440   1961.378    961.408     0.496     0.480 -57.6
       441   1890.952   1002.400     4.326     0.550  80.2
       442    970.433   1003.754     5.134     1.376 -29.2
       443   1747.000    971.916     0.799     0.289  90.0
       444    372.347    972.958     0.759     0.478  88.6
       445     64.125    973.709     0.525     0.512 -82.9
       446    382.879   1125.841    22.392     3.755  53.5
       447   1717.536    985.438    10.244     0.524  -3.0
       448    452.795   1013.735     4.838     0.573 -41.2
       449   1200.963    986.021     0.422     0.345  89.2
       450   1202.921   1062.250    15.144     1.161 -40.9
       451   1691.584   1021.765    12.304     0.614  17.4
       452    307.776   1022.174     3.701     0.524 -82.7
       453   1297.971    996.780     0.703     0.616   4.6
       454    391.476    997.649     0.729     0.542  48.3
       455   1980.128   1003.622     0.746     0.733 -63.9
       456    805.606    998.880     0.489     0.325   1.8
       457    252.805   1042.791     5.337     3.717  84.5
       458   1767.959   1006.489     0.518     0.475  82.5
       459   1099.785   1047.112     5.843     1.556 -54.0
       460    995.743   1015.216     0.763     0.749  67.6
       461    761.873   1025.431     1.691     1.165  75.0
       462    462.416   1017.225     0.848     0.736  72.5
       463   1602.266   1037.774     7.612     0.496  20.1
       464    398.033   1021.301     0.712     0.498  70.3
       465   1630.436   1051.726     5.966     0.524  45.0
       466    292.434   1022.471     0.538     0.514  53.4
       467    647.713   1023.292     1.313     0.627  16.3
       468    761.662   1034.972     9.332     0.539  -8.9
       469    878.723   1027.866     2.489     0.585   4.4
       470    978.854   1023.049     0.664     0.619 -46.5
       471   1692.727   1038.850     3.300     0.473   2.4
       472    807.893   1044.257     1.216     0.410  35.9
       473    183.182   1046.393     0.589     0.560 -46.6
       474   1303.528   1063.432     4.620     0.490  15.8
       475    705.890   1055.672     0.584     0.468   6.1
       476    708.424   1071.012     2.797     0.476 -35.0
       477    108.296   1057.918     0.583     0.547  44.8
       478   1631.352   1080.706     2.317     1.087 -85.7
       479   1126.682   1082.422     3.395     1.277 -37.6
       480    800.576   1067.126     0.848     0.642 -75.5
       481    137.237   1065.892     0.434     0.351  -1.2
       482   1059.830   1100.397     4.256     1.042 -80.0
       483    236.406   1098.387     6.026     3.500 -18.9
       484   2037.787   1081.306     0.768     0.719  20.8
       485   1693.650   1104.441     5.009     1.517 -49.0
       486    314.094   1093.769     2.075     1.066 -20.7
       487    435.091   1085.716     0.783     0.515 -29.4
       488    861.490   1182.373    13.531     0.933 -58.9
       489    362.719   1125.421     6.896     3.725  33.3
       490   1921.006   1085.774     0.508     0.317  89.5
       491   1336.701   1092.752     0.711     0.672  37.8
       492     73.054   1103.235     3.133     0.583  26.8
       493    794.231   1097.866     3.411     0.464  -3.2
       494   1583.877   1100.315     2.212     0.761   6.5
       495    213.062   1098.476     0.815     0.578 -38.3
       496   1607.251   1113.621     3.706     0.526  30.1
       497   1999.443   1101.897     0.497     0.303  -2.6
       498    715.259   1107.333     0.534     0.514 -73.3
       499   1201.947   1127.323     2.992     0.612  59.8
       500   1112.243   1108.217     0.616     0.584  39.3
       501     35.290   1109.405     0.527     0.511 -65.3
       502     11.288   1113.277     5.921     0.608  -1.1
       503   1836.010   1111.767     0.519     0.502  78.5
       504    284.966   1114.916     0.520     0.505 -37.1
       505   1452.125   1124.762     1.102     0.811  28.0
       506   1159.823   1128.132     2.525     0.691  47.6
       507   1344.034   1119.223     0.630     0.627  45.2
       508    775.697   1124.808     1.906     0.759  17.7
       509   1843.351   1119.735     0.612     0.586   6.4
       510    903.025   1148.498     5.436     0.656  42.7
       511    438.524   1176.559     6.670     2.117  60.6
       512    488.477   1125.757     0.688     0.668  70.9
       513    221.636   1122.945     0.716     0.410 -33.9
       514    975.875   1129.217     0.477     0.402 -67.7
       515    430.656   1132.915     0.747     0.492 -84.1
       516    218.637   1132.726     0.603     0.474  77.8
       517   1821.431   1138.092    10.658     0.526  -3.1
       518     40.569   1158.280     2.803     1.187  74.8
       519    640.908   1148.604     0.988     0.768  43.3
       520    877.891   1146.351     7.214     0.549   0.5
       521    144.475   1146.989     0.577     0.313  -0.1
       522    601.568   1157.655     0.601     0.569  87.9
       523   1161.073   1176.214     4.038     0.485  36.2
       524    959.485   1161.156     0.707     0.682 -47.1
       525    981.446   1217.348     8.512     0.770 -48.4
       526   1955.994   1175.040     0.805     0.639  82.4
       527    889.496   1181.423     4.933     0.524  10.6
       528   1573.514   1175.055     0.500     0.310   0.4
       529    346.428   1183.868     0.910     0.683  18.7
       530     10.805   1217.097     5.111     1.688  78.4
       531   1056.610   1183.138     0.488     0.366  -0.4
       532    946.213   1183.005     0.646     0.556 -85.0
       533   1817.470   1215.553     6.611     0.644 -39.4
       534   1528.786   1929.413     0.699     0.603   3.5
       535   1512.724   1025.961   665.619   122.210  88.5
       536    267.087    213.049   240.038     6.295 -89.6
       537    194.015   1992.469     9.070     0.956  90.0
       538    689.655   1881.486     0.747     0.723 -25.5
       539    639.893   1713.906     0.354     0.338  23.8
       540    742.827   1896.550     1.417     1.082  77.8
       541   1989.400   1619.373     6.572     0.525 -10.0
       542   1262.482   1737.121     0.580     0.566  48.6
       543   1894.220   1730.995     3.781     1.451  21.9
       544    759.871   1700.971     1.111     0.820 -77.8
       545   1444.229   1880.854     0.423     0.350  11.0
       546      1.388   1859.424     0.535     0.487 -82.7
       547    669.317   1692.959     0.682     0.611 -77.0
       548   1813.994   1720.301     0.761     0.750 -57.9
       549    223.079   1722.074     0.425     0.356  42.8
       550   1497.433   1723.457     1.201     0.448 -40.0
       551   1694.496   1692.861     0.599     0.492 -75.0
       552    981.953   1885.734     3.638     0.548 -66.4
       553    826.945   1720.758     0.618     0.608  45.0
       554    480.055   1711.916     0.602     0.584 -73.4
       555    986.197   1482.984     0.499     0.398  88.0
       556    165.522   1670.822     0.752     0.747  52.3
       557   1223.513   1701.144     0.701     0.676  20.3
       558   1889.134   1646.314     0.592     0.536 -36.0
       559    193.349   1698.841     0.477     0.376   2.0
       560    195.054   1604.786    11.843     3.291 -83.9
       561   1784.022   1684.636     0.685     0.684  20.1
       562    523.706   1690.326     1.507     0.718 -72.0
       563    644.408   1678.588     0.760     0.578  68.8
       564   2028.748   1694.897     5.601     2.677 -46.0
       565   1950.959   1681.903    11.261     0.495 -19.9
       566   1305.201   1684.719     1.407     0.905  -7.5
       567    857.496   1680.107     1.337     0.859  -8.7
       568    374.258   1482.772     0.563     0.537 -73.6
       569   1918.475   1673.204    18.131     0.558  -1.5
       570   1085.818   1881.680     2.466     0.549 -24.6
       571    148.672   1644.343     0.491     0.483  78.4
       572   1577.370   1853.791    19.105     1.405 -27.0
       573    253.727   1480.929     1.947     0.847 -30.3
       574    595.773   1559.646     0.634     0.619   3.6
       575     82.883   1500.090     1.783     0.699  31.5
       576   1475.526   1588.390     0.778     0.761  67.5
       577    811.382   1498.668     2.682     0.463  17.4
       578    611.127   1633.088    10.393     1.117  -8.7
       579     12.611   1558.667     0.584     0.561  57.0
       580    292.385   1639.475     0.510     0.476 -56.2
       581    907.828   1483.837     0.592     0.575  62.0
       582    358.899   1557.870     0.795     0.768 -44.8
       583    749.899   1648.342     0.475     0.300  86.1
       584   1355.363   1599.519    28.124     4.349  76.4
       585   1807.015   1636.398     3.137     1.465 -42.7
       586     41.335   1638.445     0.844     0.700  23.8
       587   1239.939   1620.247     0.726     0.666 -87.0
       588    767.904   1637.719     0.543     0.523  15.1
       589    312.557   1629.236     0.540     0.449 -21.3
       590   1343.054   1624.550     2.804     0.911 -54.4
       591   1724.128   1611.425     0.603     0.591  46.7
       592    531.455   1610.856     0.518     0.473  -9.3
       593    849.887   1538.623    13.367     1.055 -35.1
       594     73.507   1584.887     0.541     0.483  -0.8
       595   1145.758   1592.069     4.061     1.303  70.4
       596     23.391   1626.631     0.515     0.477  58.2
       597    472.030   1612.139     0.696     0.645 -32.6
       598      3.959   1590.491     2.691     1.783  52.2
       599   1146.721   1607.952     0.451     0.270  -7.2
       600    726.133   1609.493     4.876     0.484  47.9
       601    555.795   1607.612     0.640     0.586  35.2
       602    796.090   1593.669     0.500     0.424  89.6
       603   1426.351   1599.597     0.491     0.477  86.7
       604    904.282   1557.461     0.899     0.816  84.8
       605   1485.223   1915.780     0.452     0.375  44.4
       606   1323.252   1606.744     0.816     0.626  67.2
       607    463.715   1564.126     3.389     1.345  53.7
       608    253.190   1563.239     0.639     0.600 -78.0
       609    251.324   1598.827     0.735     0.698  77.2
       610    755.715   1568.137     0.647     0.646 -72.5
       611    772.376   1579.406     0.665     0.633  43.0
       612    706.984   1408.800     1.559     0.606 -20.1
       613    240.386   1546.916     0.774     0.611 -83.7
       614    182.760   1563.772     0.761     0.752 -24.2
       615     50.079   1552.860     1.402     0.498 -89.6
       616    450.072   1571.119     0.324     0.258 -85.0
       617   1167.055   1572.663     0.717     0.696 -61.7
       618   1810.925   1501.261     0.497     0.480  59.3
       619    306.644   1560.208     6.976     0.451  47.1
       620    310.748   1525.828     0.767     0.758  15.9
       621    506.379   1509.644     0.564     0.544  84.7
       622   1670.426   1537.949     0.820     0.791 -82.6
       623   1018.686   1504.941     5.615     0.591  11.6
       624   1560.498   1565.241     0.628     0.485 -72.3
       625   1256.922   1561.169     0.435     0.394  88.7
       626   1369.137   1357.717     3.887     1.200 -48.1
       627   1483.772   1499.935     4.950     0.543 -27.2
       628    702.380   1544.178     0.536     0.510  82.4
       629    832.263   1407.186     1.596     0.638 -68.9
       630    703.029   1501.301     0.825     0.618  -6.3
       631    913.092   1541.543     0.587     0.582  15.3
       632    592.225   1543.366     4.638     0.552 -21.8
       633   1770.856   1517.489     4.480     0.499  73.1
       634   1969.303   1509.264     0.916     0.281 -65.3
       635    442.140   1528.052     0.634     0.613  34.3
       636    994.758   1504.090     7.324     2.892 -57.3
       637    772.731   1529.523     0.514     0.443  87.7
       638    749.686   1525.996     2.807     1.633 -57.8
       639    342.771   1518.534    11.330     2.036  -9.8
       640   1587.610   1501.197     3.865     1.415 -73.5
       641     30.546   1497.934    10.706     1.055 -31.1
       642     59.232   1450.115     0.783     0.766 -89.9
       643    581.111   1518.325     1.425     0.722  78.3
       644   1054.171   1515.998     0.646     0.627  35.0
       645   1664.808   1514.069     0.933     0.627  29.7
       646   1733.746   1488.604     0.573     0.489  -3.9
       647    942.698   1518.687     0.701     0.646  54.8
       648   2015.182   1510.178     1.643     0.747  14.0
       649   2029.601   1505.058     0.811     0.760  10.8
       650   1914.452   1494.236    15.412     1.032  24.5
       651   1163.381   1503.572     0.982     0.850 -67.6
       652   1344.223   1484.297     0.786     0.642 -40.6
       653   1621.241   1468.473     2.985     1.024 -42.8
       654    124.882   1486.420     1.432     0.834  60.5
       655    557.784   1493.737     0.503     0.465  66.2
       656   1918.864   1475.074     0.594     0.544  58.6
       657   1747.426   1483.767     2.912     1.166  75.7
       658   1185.156   1486.561     2.567     0.578 -83.1
       659    538.373   1491.373     0.742     0.730 -68.5
       660   1534.726   1469.227     1.153     0.703  39.1
       661    520.014   1447.670     0.837     0.616  72.9
       662   1378.070   1476.800     0.400     0.256 -89.9
       663    412.802   1461.131     9.311     0.486 -26.7
       664    483.440   1439.213     2.476     0.371  -4.4
       665    879.753   1483.601     1.438     0.888  57.4
       666   1439.687   1477.998     1.828     0.829 -60.8
       667   1736.832   1467.968     4.563     1.164 -21.6
       668   2034.394   1911.030     1.363     0.472 -84.3
       669   1858.143   1908.216     0.412     0.350  85.3
       670    635.983   1459.613     4.037     0.498  40.4
       671    937.675   1450.100     9.645     0.541 -49.3
       672   1393.359   1902.206     8.589     1.731  26.7
       673   1230.070   1460.891     8.157     1.646 -24.8
       674    804.737   1465.983     0.619     0.586 -58.1
       675   1831.101   1836.611     0.713     0.631 -65.4
       676   1328.543   1905.781     0.792     0.641  82.1
       677    600.376   1905.145     0.886     0.835  72.3
       678   1563.427   1911.331     0.631     0.621 -28.4
       679    980.869   1370.247     1.459     0.870  -6.6
       680    615.513   1437.657     2.006     0.744 -84.6
       681   1644.181   1920.185     0.792     0.773 -18.2
       682    522.720   1435.475     3.483     0.680 -72.3
       683    199.643   1910.564     0.672     0.630 -67.3
       684    665.925   1384.860     0.797     0.711   0.2
       685   1665.287   1445.351     0.660     0.584  68.2
       686   2013.826   1436.155     0.879     0.684 -78.9
       687    375.030   1909.209     8.511     0.696  46.5
       688    191.586   1353.936     0.700     0.593 -85.5
       689    842.038   1923.524     0.828     0.661 -21.1
       690   1368.656   1842.519     0.871     0.825 -21.9
       691     16.513   1416.389     9.558     2.538 -87.7
       692   1964.168   1416.702     3.724     1.959 -65.9
       693    314.723   1370.781     1.832     0.615  48.8
       694    494.012   1893.565     7.203     1.206  30.0
       695    585.392   1921.646     5.279     0.553   1.7
       696   1750.625   1414.853     1.073     0.804  73.4
       697   1449.227   1405.377    13.524     1.657 -27.9
       698    950.979   1332.934     0.969     0.410 -87.6
       699    327.011   1311.756     0.614     0.591   1.8
       700   1370.180   1372.386     5.072     0.660 -26.6
       701    227.939   1362.980     6.619     1.027 -75.2
       702   1652.457   1408.173     0.735     0.721  86.9
       703     76.316   1929.777     2.019     0.382  67.9
       704    815.694   1403.962     7.857     0.498  -9.8
       705   1395.026   1398.383     0.740     0.726  87.1
       706    417.532   1332.951     0.588     0.547  54.6
       707    997.712   1390.038     1.769     0.778 -76.2
       708    578.978   1331.579     5.491     1.639 -35.1
       709   1456.595   1315.690     9.680     0.517 -56.2
       710    187.794   1373.526     0.713     0.667 -65.9
       711   1873.351   1332.823     0.485     0.433 -23.8
       712    397.648   1384.211     1.704     0.568  86.6
       713    750.112   1385.705     1.396     0.403  28.7
       714    685.232   1336.389     0.848     0.828  30.8
       715    904.906   1385.782     0.746     0.670 -14.0
       716    922.772   1370.377     0.742     0.680  60.2
       717   1607.795   1377.796     0.462     0.452  54.9
       718   1040.913   1387.628     0.523     0.505 -57.1
       719   1967.189   1275.407     1.750     0.622 -66.5
       720   1056.141   1375.956     1.398     0.729 -10.0
       721    509.863   1366.060     0.378     0.323  -6.2
       722   2028.630   1368.062     0.665     0.654  45.6
       723   1448.485   1336.712     3.706     1.216 -61.3
       724    330.179   1353.293     2.520     1.964  32.4
       725    739.315   1364.189     0.465     0.392   0.1
       726   1229.740   1349.630     0.904     0.810 -75.3
       727   1273.881   1334.503     3.582     0.576  16.6
       728   1789.712   1344.033     3.321     0.681 -70.3
       729     63.345   1296.865     0.849     0.752  40.1
       730   1915.697   1347.100     0.597     0.540 -59.3
       731   2000.400   1336.283     0.498     0.470 -32.7
       732   1694.580   1295.302     1.943     0.532  26.4
       733   1528.565   1331.596     0.680     0.631 -58.8
       734   1846.512   1228.612     1.012     0.886  -7.5
       735   2022.522   1297.466     0.759     0.684   9.0
       736   1324.067   1312.541     0.676     0.673  31.0
       737   1449.895   1926.907     5.039     0.512  26.3
       738    963.203   1312.048     0.723     0.424 -47.4
       739    960.944   1273.912     1.145     0.662  -2.5
       740    552.376   1314.358     4.229     0.768  45.6
       741    473.019   1254.096     1.061     0.826   8.9
       742    609.299   1290.413     7.666     0.561  47.9
       743   1550.413   1295.208     1.870     1.060  66.6
       744   1045.720   1296.889     2.173     0.777 -37.3
       745    506.672   1261.570     0.625     0.563 -49.2
       746   1723.430   1286.810     3.678     1.625 -23.2
       747   1554.240   1257.118     5.823     1.625  -8.8
       748   1393.647   1756.443     1.830     0.300  14.0
       749   1115.082   1256.475     0.529     0.482  76.8
       750   1723.836   1253.750     5.272     0.840 -83.9
       751    225.895   1932.633     0.544     0.458 -79.2
       752   1967.628   1933.043     0.724     0.394  62.5
       753    671.173   1760.183   126.100    20.188 -16.2
       754    659.899   1266.906     0.615     0.604 -30.9
       755   1220.456   1953.040     5.118     0.562  16.8
       756    784.137   1285.819     0.711     0.638 -10.4
       757   1856.564   1269.180     0.754     0.683 -13.1
       758    993.787   1265.783     0.825     0.819  76.0
       759    773.602   1949.826     0.677     0.515  88.2
       760   1554.615   1935.576     0.896     0.835  82.1
       761   1985.821   1258.647     0.479     0.382  83.3
       762    817.927   1249.229     0.676     0.643  71.6
       763   1088.687   1240.529     0.778     0.672 -55.4
       764   1834.153   1939.616     5.805     1.243  -7.5
       765    899.264   1810.287     0.999     0.830  66.2
       766    601.704   1243.357     0.483     0.452  69.4
       767     89.310   1946.198     0.683     0.681  51.5
       768   1391.768   1252.955     0.776     0.727 -79.2
       769    292.062   1956.667     4.727     1.256 -38.8
       770    330.203   1837.173     5.746     0.811  -3.8
       771   1837.744   1858.379     0.571     0.546  81.8
       772    744.680   1889.821     0.494     0.471 -14.4
       773    408.747   1223.924     6.613     2.951  41.2
       774    610.016   1228.514     0.596     0.585  36.6
       775    841.824   2028.965    11.898     0.503  19.7
       776   1410.358   1214.059     4.484     0.521  28.6
       777    592.401   1223.313     0.745     0.712 -66.6
       778   1993.485   1730.112     1.464     0.968  20.0
       779    648.446   1223.847     0.630     0.577  78.0
       780   1435.560   1744.891     0.541     0.529 -83.9
       781    197.700   1963.406     0.583     0.573  -8.6
       782    648.714   1194.701     0.496     0.494 -82.9
       783   1572.038   1833.170     5.134     0.526 -54.2
       784    546.363   1204.614     3.175     0.515  17.7
       785   1296.698   1215.324     0.474     0.452  56.7
       786   1618.274   1213.330     0.470     0.446 -87.1
       787    507.255   1740.610     8.291     0.619  60.3
       788   1587.266   1216.786     0.631     0.607  88.4
       789   1510.362   1199.461     0.767     0.751  34.3
       790     38.696   1204.784     0.552     0.533  64.4
       791   1193.579   1847.684     0.494     0.465   6.0
       792   1707.099   1200.170     0.390     0.330 -85.1
       793   1722.936   1199.096     0.765     0.705 -55.3
       794    960.275   1191.654     0.558     0.434  67.3
       795   1951.629   1747.031     0.866     0.831  46.5
       796    748.011   1786.745     6.619     1.328 -77.6
       797   1444.492   1745.928     1.075     0.832  76.2
       798   1288.507   1715.829     0.606     0.580  65.4
       799   1612.863   2183.151     9.648     0.677   7.3
       800    482.951   1687.686     5.326     1.057 -10.2
       801   1719.583   1759.653     0.627     0.488  68.9
       802    331.734   1798.669    13.213     0.485 -44.1
       803      3.277   1955.799     1.994     0.879  68.1
       804    449.999   1867.379     0.905     0.638  44.5
       805    641.538   1749.283     0.499     0.450   6.5
       806   1748.417   1847.484     0.504     0.489  57.8
       807    330.538   1823.255     0.787     0.766 -21.6
       808   1179.090   1789.941     0.389     0.350  10.9
       809    903.210   1883.598     8.431     0.506 -18.0
       810   1241.259   1800.319     1.431     0.731  28.3
       811   1234.257   1601.496     1.870     0.458 -18.7
       812    310.573   1752.986     1.295     0.414 -76.6
       813    696.173   1671.489     0.689     0.659  73.3
       814    908.768   1780.605     0.559     0.509 -40.0
       815   1016.152   1744.995     1.578     0.175   0.9
       816    779.306   1782.679    11.393     0.847  36.7
       817     46.358   1856.288     0.514     0.493 -43.5
       818   1673.797   1736.296     4.074     0.539  70.4
       819    470.505   1778.541     0.505     0.493  41.2
       820     18.088   1789.544     0.828     0.715 -78.7
       821   1200.859   1782.484     8.979     0.861 -59.3
       822   1794.358   1737.123     1.586     0.486 -80.9
       823   1632.836   1806.014     0.470     0.316  -2.0
       824    520.513   1762.585     0.541     0.498 -79.3
       825   1802.778   1838.010     1.036     0.823  -0.2
       826   1915.280   1782.892     5.790     2.365  36.1
       827   1443.716   1988.531     0.507     0.469  85.3
       828   1989.985   1875.847     0.558     0.517  38.7
       829    339.617   1479.267     3.312     0.508  11.0
       830   1186.391   1790.017     0.488     0.362   2.1
       831    666.341   1808.374     0.496     0.481  26.2
       832    394.499   1872.951     0.500     0.474   7.7
       833    826.188   1903.892     3.227     0.876 -38.4
       834   1955.004   2037.033     0.387     0.383 -86.9
       835    884.877   1823.167     5.384     0.727 -15.1
       836    124.491   1826.041     0.527     0.480  49.7
       837    533.545   1862.828     3.992     0.560   0.0
       838    239.419   1816.387     1.071     0.753  48.1
       839    484.343   2014.026    12.066     0.528 -24.2
       840     56.284   1968.887     0.661     0.594 -82.3
       841   1587.206   1747.429     1.325     1.038  66.8
       842    554.074   1798.321     0.665     0.658  43.8
       843     56.087   2011.457     3.843     0.908  -5.5
       844    910.749   2024.985     2.312     0.604 -49.1
       845   1745.920   1821.870     0.646     0.614 -88.1
       846   1590.913   1866.884     0.750     0.718  64.0
       847   1165.559   1847.399     1.393     0.769   1.6
       848   1241.583   1787.326     0.655     0.462 -11.4
       849     11.405   1757.069    19.368     0.640 -72.8
       850   1071.312   1858.957     0.463     0.202  -0.7
       851    510.125   2033.595     0.491     0.331  86.7
       852   1777.560   2013.231     3.269     0.958   8.3
       853    719.155   1999.459     4.299     1.200  59.8
       854      2.189   1933.949     0.968     0.493  19.7
       855     89.375   1987.771     0.634     0.589 -34.0
       856   1253.919   1979.977     0.604     0.574  76.1
       857    137.393   1973.470     0.703     0.687 -40.9
       858   1459.432   2039.651     0.749     0.471  11.1
       859    488.825   1975.057     1.379     0.512  53.4
       860   2027.647   1940.010     5.563     0.746  -8.9
       861   1309.378   2032.824     0.658     0.631 -36.9
       862   1226.007   2014.090     1.727     0.629 -15.1
       863    735.321   2020.825     5.170     2.557 -64.7
       864   1089.858   2015.678    13.731     0.640 -88.5
       865   1572.192   2029.711     0.461     0.385 -70.9
       866   1303.152   2039.448     0.645     0.570  -2.5
       867   1624.898   2029.770     0.718     0.662  74.8
       868   1066.901   1942.001     0.938     0.833 -69.5
       869   1633.469   2008.672     3.547     1.223  17.1
       870   1046.754   1996.225     5.637     2.487  48.9
       871   1910.167   2003.538    38.660     9.227  13.5
       872   1790.546   2004.781     0.859     0.677  62.9
       873    830.499   2007.038     1.790     1.010  18.1
       874   1175.793   2006.130     2.460     0.632   7.1
       875    207.034   1989.410     0.722     0.677  87.2
       876    496.551   1994.299     2.141     0.489 -55.6
       877   1506.991   1904.708     8.522     4.989  80.0
       878     78.508   1957.206     0.926     0.822   4.8
       879   1627.118   1978.945     2.967     0.745 -42.2
       880    795.087   1970.541     6.202     0.899  13.0
