#   1 NUMBER                 Running object number                                     
#   2 X_IMAGE                Object position along x                                    [pixel]
#   3 Y_IMAGE                Object position along y                                    [pixel]
#   4 A_IMAGE                Profile RMS along major axis                               [pixel]
#   5 B_IMAGE                Profile RMS along minor axis                               [pixel]
#   6 THETA_IMAGE            Position angle (CCW/x)                                     [deg]
         1    927.219     72.133     9.494     1.265 -46.7
         2   1067.235     66.487     8.572     5.677 -66.9
         3   1526.424     43.133     3.525     0.492 -89.3
         4    738.586     29.889     7.859     1.063  56.0
         5   1326.306     31.549     3.993     0.710  81.9
         6    669.700     24.103    10.066     0.538  28.1
         7   1667.299     10.854     7.771     4.417 -34.6
         8   1437.126     11.160     3.459     1.037 -80.1
         9   1034.707     10.295     2.157     0.935 -14.7
        10   1526.561      6.010     2.297     0.745 -89.1
        11    777.867      5.615     1.386     0.721  79.9
        12   1866.415      1.000   173.149     0.289   0.0
        13    726.999     36.939     2.913     0.575  85.2
        14   1015.857    113.020    13.331     3.340 -63.6
        15    599.369     19.299     0.822     0.694  -7.6
        16    536.327     17.507     0.721     0.645  -1.5
        17     18.499     19.519     3.244     1.031   4.7
        18    699.124     20.127     0.394     0.381  51.3
        19    753.478     17.247     0.500     0.431  -3.1
        20   1499.682     22.904     0.563     0.531 -71.4
        21   1336.907     32.997     0.714     0.708 -15.2
        22   1947.147     88.366     9.927     0.986 -46.6
        23   1538.377     36.380     0.872     0.840  50.2
        24   1702.647     30.118     0.484     0.401   1.0
        25   1347.316     37.113     0.769     0.573 -71.9
        26    989.254     54.890     3.732     1.488 -45.6
        27   1487.006     77.979     5.786     0.513  71.7
        28   1917.651     41.160     0.781     0.689   4.2
        29    924.841     38.508     0.606     0.597 -43.0
        30    368.117    196.070    39.804     2.184  28.1
        31   1740.851    108.584    28.605     2.043  14.7
        32    518.896     43.439     0.497     0.382  86.1
        33    994.461     64.061     2.204     1.646 -48.3
        34   1805.146     54.937     0.666     0.617  52.7
        35    511.073     53.452     0.506     0.463 -85.2
        36   1370.525     63.200     0.783     0.756  78.5
        37    560.205     55.890     0.406     0.310   9.3
        38    259.279     60.001     0.638     0.498  48.2
        39    722.719     66.816     0.642     0.627 -85.1
        40    583.263     68.425     0.696     0.689  81.5
        41    502.939     85.671     2.406     0.648 -69.2
        42     68.408    114.190     7.843     2.220 -34.2
        43   1764.565     74.657     0.724     0.709 -62.7
        44    909.403     73.662     0.491     0.472 -11.9
        45   1748.430     84.311     0.957     0.818 -23.8
        46    805.206    119.519    11.533     0.617  21.2
        47   1351.674     92.934     3.940     0.952  26.3
        48   1620.543     78.390     0.529     0.455 -41.0
        49   1813.464    106.438    11.267     1.863   3.4
        50   1181.446    125.565     8.509     1.105 -28.2
        51    758.787     95.164     3.657     0.812  19.2
        52   1315.426     96.989     0.751     0.742  74.9
        53   1246.679    102.249     1.314     0.750 -85.6
        54     84.734     96.495     0.804     0.659  87.3
        55   1212.508     96.999     0.618     0.593  66.7
        56   1576.317    149.687    27.689     0.563 -11.2
        57    458.174    102.440     0.562     0.539  14.3
        58   1095.712    109.895     5.943     0.512 -10.4
        59   1080.541    107.872     0.824     0.799 -77.4
        60   1563.500    111.933     0.824     0.672  12.3
        61   1969.497    104.364     0.504     0.477  22.9
        62   1064.838    115.603     0.980     0.337  79.8
        63   1089.549    118.570     1.068     0.819  50.9
        64   1645.372    140.712     7.737     0.603  31.1
        65    587.011    121.138     0.912     0.820  -1.0
        66   1837.583    133.675     5.033     1.499 -31.4
        67    984.455    124.556     1.149     0.639 -72.1
        68   1896.479    124.239     1.394     0.447  51.0
        69    270.280    129.640     1.680     0.447  88.4
        70   1702.802    131.649     0.605     0.584  26.0
        71   1316.124    136.443     2.774     0.518   7.7
        72    227.988    131.021     0.416     0.363  89.6
        73   1849.477    153.903     2.504     0.634 -86.6
        74   1679.935    145.965     1.449     1.316 -41.9
        75    862.115    142.629     0.795     0.488 -55.3
        76    363.236    169.963     5.667     1.641  25.3
        77   1200.834    162.021     2.551     0.695 -33.0
        78   1112.626    216.017    10.233     2.617  39.7
        79   1186.815    179.948     4.697     0.772  45.7
        80    295.125    151.903     0.622     0.559   5.6
        81     65.041    194.193    37.443     2.531   3.1
        82    455.165    160.018     2.648     0.311  -1.3
        83    617.612    227.400     8.959     0.970 -67.1
        84    767.704    231.948     8.460     2.143  80.9
        85   1750.871    175.808     0.849     0.647  49.4
        86   1881.612    170.439     0.672     0.644  21.3
        87    681.859    179.478     0.655     0.639 -69.1
        88    764.852    177.048     0.556     0.548 -63.4
        89    892.576    237.846    10.614     3.410 -21.7
        90    331.653    215.039     3.098     0.905 -78.0
        91   1284.111    200.150     2.271     1.248  27.2
        92    817.560    207.881    10.770     0.521 -13.4
        93   1735.857    192.543     0.652     0.639 -16.0
        94   1763.065    229.926    24.510     0.511  11.7
        95   1060.257    197.776     0.698     0.651 -54.5
        96    620.389    195.076     0.559     0.536  74.2
        97    379.294    260.393    12.611     0.676 -32.5
        98    516.604    216.655     0.979     0.544  84.4
        99    758.332    223.063     1.191     0.785  86.0
       100     90.146    252.620    63.139     0.725   3.0
       101   1163.483    813.903    64.769     0.592  89.7
       102   1242.387    224.945     2.717     0.778  17.6
       103    475.862    216.107     0.483     0.352  80.9
       104    668.818    233.228     1.341     0.708  28.4
       105    861.284    279.977     6.101     0.626 -63.3
       106   1854.179    272.178     5.805     3.094 -58.1
       107    178.684    239.958     0.687     0.657  50.4
       108    782.873    240.843     0.892     0.635  59.1
       109    859.350    378.239    41.354     0.560 -23.9
       110   1278.347    247.470    15.813     0.538   3.0
       111   1526.751    242.503     1.170     0.262  72.4
       112   1445.113    239.406     0.491     0.317 -89.1
       113   1873.222    286.682     6.389     0.486  55.3
       114   1155.882    294.323    36.488     1.828   7.8
       115    507.004    248.324     0.523     0.487  81.5
       116    442.724    249.643     3.683     0.426  -3.5
       117    447.179    267.585     2.471     0.596  52.7
       118    997.306    255.950     0.687     0.656  51.3
       119   1194.030    268.867     1.282     1.018  83.8
       120   2027.000    264.320     0.599     0.588 -16.8
       121   1773.962    266.342     0.642     0.571   7.0
       122   1845.499    266.783     0.593     0.314 -39.3
       123    912.535    289.580     3.810     0.851 -35.8
       124    811.203    281.051     5.857     0.522 -14.8
       125    565.078    290.060     2.051     0.863 -59.4
       126   1075.003    285.988     1.193     0.865 -82.7
       127     51.842    276.171     0.520     0.374   7.7
       128    577.201    302.959     4.332     0.506  32.5
       129    188.863    306.730     2.334     0.792  74.7
       130     11.119    282.366     0.514     0.484  71.3
       131   1357.017    379.741    18.079     0.569  29.9
       132    311.087    307.856     3.951     2.750  35.1
       133   1689.709    343.987    10.903     1.224  36.7
       134   1459.866    288.824     0.412     0.328 -68.2
       135    145.911    290.064     0.570     0.456 -61.4
       136    981.514    300.201     0.869     0.594  58.2
       137   1245.842    298.988     0.404     0.365 -86.4
       138    196.266    308.213     1.096     0.595  86.7
       139   1351.336    305.023     0.579     0.447 -31.2
       140   1656.563    310.270     0.656     0.635 -81.2
       141   1257.852    332.394     6.393     1.033  19.3
       142   1323.618    318.492     1.957     0.796 -20.2
       143   1435.726    323.897     1.841     0.615  87.4
       144   2034.846    313.495     0.501     0.383  85.6
       145   1035.598    336.793     1.214     0.756  87.9
       146    355.093    329.403     0.578     0.549  48.5
       147   1050.287    354.508     4.744     0.991 -36.8
       148   1855.037    335.680     0.776     0.756   4.1
       149    186.091    339.085     0.919     0.863 -18.5
       150   1293.370    380.741    10.185     0.916  30.0
       151    156.128    338.437     0.624     0.614 -65.5
       152   1636.956    388.292     7.011     0.320 -79.7
       153     95.317    341.267     0.522     0.487  86.1
       154   1264.606    346.497     0.920     0.643 -80.1
       155   1751.074    349.596     0.491     0.426  89.7
       156      7.679    516.233    16.029     0.914  89.9
       157   1378.182    355.702     0.457     0.386  87.5
       158    126.308    380.910     4.256     0.494 -31.1
       159   1629.417    442.951    25.731     0.525 -19.2
       160    404.037    466.603    15.671     0.555 -44.5
       161    551.101    387.215     1.677     0.581 -81.0
       162   1617.528    401.725     3.368     0.527 -52.2
       163    802.598    380.872     0.525     0.519 -49.8
       164    140.123    400.327     2.264     0.956  32.2
       165   1145.022    391.039     0.424     0.379 -89.6
       166    458.037    396.249     0.565     0.369  57.9
       167   1808.199    403.046     0.472     0.372  60.3
       168   2026.637    488.832    11.272     2.750  62.2
       169    824.559    411.423     0.864     0.747  38.3
       170    928.024    422.130     0.871     0.790  35.4
       171   1257.086    419.770     0.597     0.588 -58.1
       172    946.578    452.830     4.726     1.524 -62.1
       173   1069.084    434.819     1.981     1.321  84.1
       174    831.154    426.019     0.598     0.320  70.8
       175    794.745    427.107     0.533     0.401 -60.9
       176   1039.779    437.725     2.395     0.451 -29.1
       177    511.673    429.944     0.469     0.446   3.3
       178   1538.914    448.903     1.940     0.951  76.3
       179    125.690    436.788     0.599     0.561 -56.1
       180    698.908    446.701     7.598     1.236  -6.4
       181   1601.696    470.721     3.617     0.848 -89.2
       182    788.655    451.667     2.167     1.056  30.4
       183   1587.048    446.721     2.194     0.476  -5.3
       184     79.682    446.242     0.585     0.548 -76.6
       185   1953.663    467.550     3.835     0.488 -64.2
       186    198.111    506.948    11.215     0.562 -40.9
       187   1239.730    470.638     3.249     0.620  24.3
       188   1949.874    521.368     6.323     1.393  89.8
       189    929.817    475.287     3.330     0.815 -23.3
       190    894.110    484.753     3.821     0.630 -35.8
       191   1358.736    475.865     0.892     0.824 -47.1
       192    334.886    472.821     0.402     0.333  88.7
       193   1054.471    481.636     0.819     0.805  35.0
       194   1867.098    497.918     0.865     0.763 -44.9
       195    605.504    492.951     0.563     0.526  26.9
       196   1057.826    503.198     1.954     0.802  -5.6
       197   1045.133    498.408     0.881     0.548  -2.1
       198    150.790    500.018     0.778     0.585   4.0
       199   1618.673    517.834     2.282     1.437  31.8
       200   1312.042    508.322     1.051     0.691  76.6
       201    385.808    571.143    11.126     1.114 -81.6
       202   1646.014    566.530     7.942     1.960  71.6
       203   2036.024    510.799     2.329     0.808  11.6
       204   1339.403    566.842     4.649     1.602  85.7
       205   1221.415    513.301     0.743     0.667 -75.9
       206   1997.089    534.172     2.844     0.657 -59.9
       207   1375.649    526.758     1.760     0.693 -80.9
       208    340.038    516.524     0.829     0.548 -28.4
       209   1253.306    554.416     5.358     0.458 -60.8
       210    712.194    519.594     0.613     0.601  58.0
       211    311.297    530.345     0.953     0.851 -56.9
       212    334.544    525.659     0.756     0.735  59.5
       213    690.895    533.300     0.660     0.646  80.4
       214    779.177    544.806     1.931     0.778  73.2
       215   1723.588    536.775    16.271     0.554  -0.7
       216    425.745    536.453     0.553     0.493  32.8
       217    817.944    550.870     4.807     1.039  -7.9
       218     98.771    538.923     0.420     0.280  -2.1
       219    957.464    560.623     1.362     1.054  31.0
       220    834.681    546.997     0.548     0.529   0.1
       221   1893.404    624.377     9.205     0.773 -76.3
       222    418.578    573.773     8.502     1.661 -11.7
       223    431.785    627.027     9.038     1.355  69.1
       224   1837.376    555.836     0.511     0.504   8.5
       225   1090.619    604.560     6.633     0.646  56.8
       226    894.757    564.750     0.708     0.682 -73.2
       227     11.973    597.026     8.678     0.488 -25.1
       228    885.537    575.529     0.871     0.833   5.7
       229   1253.603    603.772    14.099     0.535 -17.3
       230   1847.112    571.899     0.666     0.561  35.4
       231   1586.572    580.452     0.853     0.801  30.6
       232   1873.684    587.221     2.887     0.767  12.1
       233    896.114    582.632     0.626     0.308  81.8
       234    304.492    582.339     0.505     0.468 -22.3
       235    852.918    604.211     5.541     1.066  25.5
       236     49.674    586.012     0.492     0.367 -27.0
       237   1600.373    614.003     5.269     1.808  56.7
       238    810.557    591.607     0.587     0.572   3.7
       239    508.888    591.358     0.652     0.622 -60.3
       240    289.808    613.835     2.702     0.814 -76.7
       241   2017.948    610.757     8.698     1.740   5.6
       242   1600.166    603.265     2.506     0.589  29.8
       243   1806.824    603.640     1.055     0.779 -43.7
       244   1395.762    602.345     4.399     0.631  -6.1
       245   1369.866    601.063     0.475     0.465  62.7
       246    324.419    598.829     0.494     0.376   2.9
       247    795.133    613.168     4.215     0.652 -14.9
       248   2039.706    607.727     0.743     0.478  89.8
       249    256.117    616.488     1.207     0.875 -88.3
       250    810.502    608.941     1.685     0.270 -20.2
       251   1938.931    607.756     0.430     0.283 -88.0
       252   1251.985    650.035     8.028     2.533  43.8
       253   1563.404    613.668     0.580     0.554  43.7
       254    675.144    620.736     1.179     0.684   1.8
       255    894.397    618.813     0.903     0.388 -63.7
       256   1664.024    615.275     0.532     0.341 -89.0
       257   1296.626    635.333     1.676     1.052  24.4
       258    177.635    624.114     0.625     0.549 -54.7
       259   1969.999    688.639     8.279     1.586 -67.3
       260   1128.497    635.613     2.140     0.991   7.6
       261   1491.173    632.916     0.881     0.622 -80.0
       262    860.509    628.104     0.501     0.451   9.2
       263   1298.748    628.022     0.521     0.324  -1.3
       264   1263.515    630.200     0.509     0.396 -11.0
       265   1546.768    638.143     0.729     0.667  23.5
       266    726.425    647.631     0.914     0.850  45.3
       267    825.853    686.251     6.212     0.611  45.2
       268   1917.750    802.241    18.004     1.304 -73.2
       269    504.574    675.041     2.698     1.245  88.1
       270    204.071    658.789     0.739     0.663  70.1
       271    458.261    656.364     0.624     0.563  64.4
       272   1060.643    651.731     0.510     0.407  34.7
       273     49.040    717.284    14.231     0.534 -31.8
       274    610.195    704.347     6.242     1.105 -86.2
       275   1360.043    655.457     1.226     0.352 -21.9
       276   1224.000    661.478     0.602     0.593  39.3
       277      5.473    677.519     2.806     1.788  43.1
       278   1652.433    667.913     0.648     0.632 -74.6
       279   1282.161    668.017     0.468     0.338   0.9
       280   1327.288    711.336    10.920     2.895   6.6
       281    846.117    701.298     5.480     1.855 -51.8
       282    801.168    702.079     7.785     1.048  26.6
       283    196.286    684.689     0.822     0.815  -1.7
       284   1017.364    684.782     0.702     0.670  46.0
       285    472.287    686.161     0.586     0.571 -71.1
       286   1277.947    687.331     0.495     0.456 -89.3
       287   1159.530    689.005     0.689     0.593  48.7
       288   1769.325    879.754    23.567     8.816  77.9
       289   2032.225    702.967     0.537     0.518 -30.3
       290    158.157    722.654     7.211     2.506  -8.1
       291    792.684    716.263     1.404     1.222   5.8
       292   1451.689    737.124     4.330     0.526  64.0
       293   1473.425    716.560     4.639     0.680  11.5
       294   1772.616    708.662     0.638     0.468 -72.2
       295   1746.118    709.114     0.636     0.538 -31.7
       296   1072.315    714.048     2.217     0.338  26.7
       297    766.255    724.291     1.173     0.468  89.8
       298   1332.814    732.242     3.768     0.845 -21.6
       299    896.777    723.986     0.935     0.765  72.3
       300   1535.985    781.364     8.410     0.764  76.4
       301    612.859    720.148     0.533     0.530   0.0
       302   1532.552    721.010     0.575     0.305   0.0
       303    271.494    725.606     0.564     0.471 -57.2
       304    179.721    736.327     0.742     0.729 -85.7
       305    697.017    736.949     0.446     0.432 -77.8
       306    361.305    758.668     2.912     0.639  74.9
       307   1817.568    749.305     4.797     0.778  -4.2
       308    954.479    754.271     1.569     0.514   2.0
       309   1099.775    807.924    10.773     0.921 -41.4
       310    968.217    765.694     0.717     0.626  52.8
       311   1624.011    782.659    12.991     1.421  -4.7
       312   1803.645    778.385     0.542     0.515 -87.1
       313   1402.070    786.108     0.764     0.731 -66.6
       314    829.466    813.221     5.143     0.540  50.5
       315   1567.372    880.464    12.480     1.973 -87.6
       316   1078.103    792.978     0.956     0.680  10.6
       317    776.743    798.392     0.512     0.480  83.2
       318    979.217    797.511     0.503     0.427  87.9
       319    462.487    807.241     0.738     0.497  52.2
       320    378.616    825.767     1.787     1.266  38.1
       321   1634.360    858.243    10.374     2.338 -26.3
       322    600.901    817.791     0.559     0.549 -18.6
       323   1051.422    831.741     0.702     0.647 -76.8
       324     81.534    853.794     2.405     0.826  83.7
       325   1422.486    865.176     3.614     0.775 -76.7
       326   1422.986    840.410     0.735     0.722 -11.8
       327    329.257    835.760     0.471     0.389 -41.6
       328    907.947    849.073     5.199     0.658 -10.9
       329    576.204    851.415     0.966     0.764 -51.4
       330   1885.525    891.058    51.162     0.537   6.6
       331    991.537    856.052     2.089     0.599 -54.9
       332     26.812    858.464     5.903     1.355  -0.2
       333   1380.218    886.454    18.527     1.708  13.2
       334   1167.465    854.706     0.865     0.823 -66.7
       335     68.387    849.910     0.714     0.678  63.4
       336   1241.760    855.911     0.718     0.674 -54.3
       337   1952.265    854.157     0.728     0.598  -4.3
       338    129.295    867.224     3.157     1.106  -6.9
       339   1102.530    858.922     0.506     0.270 -10.8
       340   1999.082    870.932     1.340     0.868 -19.5
       341    824.635    868.140     0.747     0.652  43.2
       342   1431.479    927.817    12.667     2.189 -43.2
       343    937.140    870.961     0.724     0.534 -81.5
       344    993.265    897.454     5.056     0.513 -54.5
       345   1339.295    882.912     2.498     1.052  22.8
       346    283.171    875.488     0.607     0.544  60.0
       347    772.336    870.098     0.540     0.296  -2.2
       348   1546.468    886.850     1.666     1.250 -69.8
       349   1662.153    883.518     1.145     0.843  67.9
       350   1175.392    903.744     4.986     1.607  22.7
       351   1786.625    886.947     2.067     0.531 -26.1
       352   1972.028    925.896     9.653     0.807  31.5
       353    917.719    888.977     0.875     0.595 -72.4
       354    819.730    926.731     4.656     0.610 -68.3
       355    203.380    892.142     0.709     0.651  46.8
       356   1536.039    906.677     1.908     0.427 -85.5
       357   1261.783    895.190     0.549     0.406  13.8
       358   1861.938    902.593     0.655     0.647 -78.2
       359   1281.048    908.077     0.842     0.749  17.7
       360   2027.610    951.641     9.670     0.696 -33.7
       361   1698.650    918.961     0.815     0.636   9.1
       362    141.875    919.162     0.514     0.426 -66.5
       363   2018.278    925.778     0.721     0.681  60.5
       364    710.459    942.982    14.889     0.569 -10.8
       365    655.379    946.558     3.911     0.693 -26.4
       366   2025.994    934.323     0.544     0.510  88.7
       367     65.952    938.012     0.778     0.736 -56.8
       368    560.246    935.957     0.578     0.547  88.3
       369    168.580    939.315     0.545     0.504  35.8
       370   1939.824    948.557     0.904     0.676 -80.1
       371   1096.337    941.224     0.532     0.524  77.2
       372    320.032    944.513     1.888     0.534   6.7
       373   1927.647    946.533     0.630     0.394 -56.6
       374   1570.909    951.784     0.732     0.728   0.4
       375   1342.808    950.375     0.521     0.490  88.5
       376    829.530    947.287     0.499     0.452   4.4
       377   1883.405   1003.908     6.618     0.965 -81.9
       378   1911.123    954.245     0.630     0.575 -69.8
       379    692.390    968.853     1.922     0.767  72.5
       380   1705.105    991.936     5.526     0.984 -55.5
       381   1102.368    974.012     4.793     0.490 -41.3
       382   1238.211    965.026     0.755     0.676  12.4
       383   1964.299    974.692     2.375     1.034  29.4
       384   1291.798    982.237     4.970     0.627  32.9
       385   1884.999    964.381     0.644     0.601  27.5
       386    285.517   1005.494     6.832     1.126 -60.0
       387    254.196    965.221     0.539     0.515  14.3
       388     67.596    973.710     0.778     0.754  15.8
       389   1329.818   1011.633     5.870     0.591  55.6
       390   1693.440    973.692     0.698     0.674  53.1
       391   1422.969    976.494     0.634     0.609 -51.0
       392   1648.576    993.085     4.796     0.674  25.6
       393   1233.491   1019.809     7.068     1.517 -40.6
       394    307.723   1026.801    14.641     0.599  22.7
       395   1904.770    986.156     2.906     0.436   2.7
       396   1354.825    984.753     0.497     0.452  89.0
       397   1232.982    991.045     0.760     0.715 -86.6
       398    534.274   1013.798     5.571     0.384 -36.4
       399    144.971    993.657     0.556     0.543 -67.4
       400   1675.084    994.199     0.495     0.477 -86.4
       401    396.771    994.853     0.650     0.491  44.0
       402    431.420   1005.284     1.067     0.898 -42.1
       403     20.441   1020.814     3.107     0.596 -63.9
       404   1131.020   1084.075     8.815     1.608  84.2
       405   1393.145   1014.965     0.562     0.503 -57.1
       406   1038.727   1027.586     1.132     0.377  71.4
       407    318.010   1024.498     0.508     0.430  79.5
       408   1252.668   1024.324     0.473     0.466 -31.7
       409   1437.708   1044.214     3.286     0.802 -36.0
       410   1345.356   1034.604     0.842     0.688  68.2
       411   1210.502   1047.663     2.871     0.489 -87.4
       412   1052.615   1061.920     3.146     0.552 -80.2
       413    956.796   1048.890     1.381     0.722 -27.4
       414    519.648   1137.185     9.039     2.249 -78.8
       415    582.220   1048.236     0.468     0.415 -69.0
       416    460.381   1062.146     2.943     0.795  34.2
       417   1354.888   1061.929     1.608     0.858 -12.5
       418   1089.440   1074.806     2.565     1.085  76.4
       419    656.074   1060.120     0.929     0.695 -42.9
       420    834.604   1063.428     1.177     0.872 -40.0
       421   1399.681   1077.825     4.145     1.411 -23.9
       422    147.973   1056.695     0.541     0.508  54.2
       423    759.495   1058.011     0.662     0.638  -6.5
       424    480.791   1063.565     0.506     0.471 -79.7
       425   1206.901   1068.834     1.039     0.407 -76.0
       426    761.074   1088.485     4.064     1.260  18.0
       427    671.643   1094.216     8.612     1.791  21.8
       428    553.629   1080.704     0.912     0.614 -29.2
       429   1192.033   1091.292     1.698     0.524 -71.5
       430      4.056   1114.362     4.125     0.878 -79.0
       431    398.448   1086.528     2.046     0.344 -32.8
       432   1149.941   1086.953     1.517     0.503 -33.7
       433   1122.260   1086.253     0.611     0.575  42.0
       434   1031.407   1089.632     3.002     0.512   3.7
       435   1495.983   1103.516     2.018     0.451 -80.1
       436     79.024   1085.336     0.473     0.392  84.4
       437    304.138   1090.554     0.723     0.707  89.5
       438   1476.252   1090.274     0.600     0.430 -81.3
       439   1712.364   1091.618     0.596     0.535  86.7
       440   1071.651   1097.557     0.674     0.596  21.8
       441    469.880   1125.709    14.915     0.727 -16.5
       442   1242.002   1106.264     6.623     1.166  -2.7
       443   1739.618   1132.610     3.957     0.488  82.8
       444    647.701   1126.715     2.937     0.885  89.5
       445    212.978   1098.451     0.597     0.440 -35.2
       446   1645.033   1109.925     5.601     0.874 -11.1
       447    930.398   1106.367     0.490     0.482  -2.8
       448    298.328   1108.598     0.514     0.459  65.2
       449   1377.295   1146.224     5.143     0.730  59.3
       450    392.123   1116.315     0.496     0.447 -80.5
       451   1786.537   1150.744     6.873     1.306  42.6
       452   1457.259   1132.095     1.508     0.740  88.4
       453    768.291   1118.416     0.745     0.716 -57.1
       454    952.898   1119.624     1.045     0.386 -18.7
       455   1317.498   1162.577     7.682     0.512  40.6
       456   1982.403   1129.548     1.868     0.454  55.7
       457    787.894   1148.346     3.342     1.949 -76.9
       458    926.830   1138.182     1.624     0.618  31.2
       459    479.432   1128.975     0.712     0.636 -12.8
       460    932.121   1134.780     0.515     0.483  31.4
       461     58.415   1151.204     3.853     1.001  19.1
       462    392.440   1148.677     0.894     0.854 -74.1
       463    311.889   1166.086     6.261     0.580 -27.1
       464   1735.210   1143.915     0.597     0.586 -55.9
       465   1828.048   1146.487     6.813     0.496   2.6
       466   2004.093   1148.729     0.556     0.547  42.4
       467   1666.840   1198.564     9.872     0.516  34.0
       468   1263.344   1174.484     3.798     0.503  47.3
       469   1191.407   1151.294     0.535     0.518  57.1
       470   1980.428   1154.439     0.638     0.622 -75.4
       471   1720.344   1159.809     2.543     0.913   4.1
       472   1848.295   1188.522     7.749     3.075 -24.1
       473    678.936   1184.678     3.928     0.643  88.9
       474    806.496   1159.552     0.710     0.536  83.3
       475   1784.721   1166.398     1.324     0.699  60.2
       476   1061.366   1162.669     0.805     0.790 -70.4
       477    901.280   1157.684     0.508     0.482 -56.7
       478    134.688   1199.396     5.343     0.564  67.5
       479   1552.591   1172.272     3.395     0.565 -31.9
       480    469.285   1161.716     0.703     0.656  40.2
       481   1778.190   1166.106     0.397     0.301  13.9
       482   1612.141   1174.535     0.810     0.801  65.7
       483   1764.154   1202.194     7.936     1.412  32.0
       484   1581.124   1187.847     6.626     1.618 -14.4
       485   1902.882   1187.107     0.686     0.681 -86.2
       486   1209.443   1183.059     0.557     0.517  21.5
       487   1384.451   1983.604     1.818     0.835  66.9
       488   1403.327    953.730   696.796   336.903  75.3
       489   1770.047   1832.680     0.771     0.750 -36.9
       490   1748.382   1892.089     1.250     0.664 -32.5
       491    382.884   1807.608     2.086     0.635 -40.2
       492   1010.131   1891.383     1.218     0.523  19.0
       493    908.026   1784.177     3.598     0.493 -11.7
       494    146.199   1816.946     0.633     0.625 -83.1
       495   2023.066   1885.053     0.473     0.456  69.1
       496   1297.483   1871.668     0.913     0.830 -69.8
       497     22.509   1226.764     0.864     0.826 -51.8
       498    837.871   1875.340     0.752     0.704  74.4
       499    219.202   1842.476     3.146     0.833  35.4
       500     87.557   1816.029     0.764     0.749  85.2
       501    234.702   1864.169     2.688     0.481  50.3
       502    225.487   1868.792     0.924     0.534  77.3
       503    939.641   1826.282     0.481     0.449  11.6
       504   1167.731   1856.557     0.815     0.729  86.0
       505    240.886   1865.295     1.459     0.623  60.8
       506   1510.561   1842.656     1.076     0.290 -46.3
       507   1839.455   1858.722    11.542     2.989  -9.2
       508     68.327   1823.988     8.335     0.633 -50.3
       509    485.962   1819.523     0.821     0.804  89.5
       510   1693.900   1813.377     2.380     1.288  78.6
       511   1501.545   1836.015     0.576     0.313  -0.9
       512   1855.076   1835.516     0.952     0.839  43.0
       513   1583.283   1819.558     0.557     0.526 -69.4
       514    228.169   1831.963     2.883     1.310 -56.5
       515   1611.030   1850.753     0.520     0.334 -85.6
       516    860.368   1837.137     2.124     1.190  13.3
       517    736.951   1659.053     0.696     0.401 -81.6
       518   1750.819   1820.681     0.632     0.446  64.0
       519    546.087   1756.441     0.715     0.655  60.7
       520   2004.035   1794.637     0.482     0.181 -85.6
       521    195.169   1823.019     0.581     0.545   1.4
       522    491.855   1793.245    15.287     0.685  53.0
       523   2022.005   1802.472     7.248     2.120  33.6
       524    363.388   1804.164     1.124     0.693  27.6
       525   1864.183   1767.277    11.217     7.402 -14.5
       526    335.650   1728.390     0.912     0.781  -4.8
       527   1092.351   1786.468     7.676     0.529  20.2
       528    991.373   1780.508     0.610     0.562 -80.0
       529   1371.617   1787.985     0.494     0.411  -0.4
       530    500.040   1774.150     0.707     0.628 -72.6
       531      6.601   1747.510     0.764     0.742  55.0
       532    845.004   1746.061    11.018     0.596 -70.3
       533   1386.615   1752.648     0.520     0.499  84.7
       534   1494.807   1718.882     0.395     0.367   2.1
       535   1888.934   1741.318     2.440     0.987  -0.3
       536   1292.269   1747.169     0.667     0.640  66.4
       537   1133.717   1722.791     4.099     0.488  64.3
       538    762.804   1361.099     0.397     0.298  -3.4
       539    379.325   1712.823     0.854     0.494  61.9
       540     89.583   1727.377     1.160     0.427 -44.4
       541    568.714   1733.828     0.897     0.678  -1.0
       542    709.184   1726.561     0.827     0.734  14.0
       543    193.407   1731.154     2.391     0.763  76.1
       544    399.297   1672.192     1.499     0.535  78.2
       545    364.331   1728.707     3.475     0.502  50.1
       546   1435.181   1717.176     0.757     0.676  19.0
       547   1496.877   1702.070     4.033     0.701 -85.1
       548   1891.241   1704.143     2.279     1.025 -33.6
       549    388.291   1324.202     0.567     0.560 -74.9
       550      6.446   1673.527     0.503     0.493  50.9
       551    778.348   1705.543     5.390     0.633 -47.9
       552    103.301   1703.580     1.512     0.819  65.4
       553    902.542   1688.672     0.504     0.463 -22.6
       554    737.887   1712.305     1.926     0.931 -27.8
       555   1939.961   1636.173     0.851     0.522  59.2
       556   1564.441   1652.817     1.279     0.978  67.6
       557   1901.309   1701.203     0.484     0.451  12.1
       558    321.864   1698.638     0.514     0.502 -86.4
       559   1098.776   1687.135     0.423     0.333  16.6
       560   1287.641   1689.384     2.226     0.577   9.4
       561   1694.414   1692.819     0.632     0.579 -79.0
       562   1035.046   1183.444     0.497     0.247  89.7
       563   1223.493   1658.223     0.502     0.420  -0.9
       564   1764.687   1676.352     0.844     0.425  73.7
       565    489.027   1676.584     0.519     0.490 -89.7
       566   1578.689   1363.378     0.498     0.478 -78.3
       567   1987.925   1778.762     0.537     0.521  57.4
       568    288.729   1648.325     7.671     0.998  30.7
       569   1946.492   1663.957     0.764     0.572  38.5
       570    141.363   1185.010     0.493     0.402   3.3
       571    438.867   1663.784     0.950     0.845   1.1
       572   1735.132   1648.256     0.781     0.631  35.8
       573   1028.379   1480.089     0.653     0.629  62.7
       574    467.526   1648.640     0.499     0.480   1.5
       575    663.144   1562.254     0.690     0.666  63.7
       576   1030.938   1632.307     2.179     0.918  13.8
       577    199.899   1639.775     0.611     0.414  -6.5
       578   1317.995   1638.171     0.683     0.401 -88.8
       579   1555.359   1362.307     0.484     0.475  45.6
       580   1783.379   1623.897     0.520     0.505 -27.2
       581   1884.915   1628.604     1.229     0.769  74.0
       582   1536.353   1635.113     0.723     0.703   9.3
       583    730.453   1627.517     0.543     0.541 -12.3
       584    300.678   1579.100     0.815     0.711 -66.3
       585    568.612   1627.025     0.566     0.327  -0.7
       586    376.497   1465.078     1.404     0.373  64.8
       587    318.288   1616.686     0.737     0.709  61.1
       588   2026.364   1370.456     0.716     0.682 -75.8
       589   1158.725   1601.715     5.541     0.590 -30.0
       590   1877.816   1629.001     0.551     0.497  78.1
       591    331.950   1617.868     4.809     1.736  76.8
       592    175.472   1569.550     0.691     0.649 -16.8
       593   1079.906   1580.253     0.650     0.639  89.8
       594    558.851   1583.274     1.207     0.719  49.9
       595    421.345   1614.318     0.852     0.628  85.7
       596    808.099   1618.680     7.290     0.475   2.5
       597    243.826   1354.076     9.731     0.757 -39.2
       598     46.392   1390.962     3.461     0.745 -20.0
       599    502.818   1388.603     0.726     0.563  35.8
       600   1819.509   1386.121     2.797     0.500 -10.0
       601   2004.662   1577.679     0.780     0.765  58.6
       602    809.755   1379.632     1.016     0.900 -45.0
       603    536.704   1377.265     0.624     0.581 -55.6
       604    438.607   1469.484     3.593     2.349 -76.3
       605   1207.448   1473.355     0.663     0.428  60.0
       606    163.531   1587.178     8.197     0.521  -7.7
       607    374.930   1497.040     0.967     0.775 -36.0
       608   2029.551   1571.294     9.531     0.613  43.5
       609    897.983   1583.193     0.688     0.575 -89.0
       610    895.071   1591.967     0.664     0.533  36.1
       611   1526.256   1596.158     0.436     0.365  -1.4
       612   1701.771   1483.486     0.579     0.525  -0.1
       613   1345.321   1572.791     1.167     0.784  82.3
       614    836.400   1512.814     7.532     3.592  -4.3
       615   1204.261   1514.839     4.938     0.672 -25.5
       616    110.030   1572.683     5.887     0.695  70.4
       617    888.043   1558.709     0.570     0.550   0.3
       618    622.107   1478.168     0.374     0.309 -88.6
       619    673.375   1521.928     0.806     0.768 -50.3
       620   1105.663   1475.096     7.889     0.983   0.7
       621   1965.157   1535.744     0.549     0.484 -56.6
       622   1100.652   1363.389     0.864     0.837 -14.3
       623     20.700   1525.925     0.860     0.567 -87.4
       624    910.363   1536.558     0.974     0.756 -10.8
       625   1124.388   1483.163    10.542     1.054  11.5
       626   1270.000   1528.039     0.401     0.289  90.0
       627    155.475   1537.250     0.590     0.570 -56.4
       628   1267.899   1537.438     0.496     0.301  89.2
       629   1664.494   1541.982     3.542     0.533 -11.3
       630   1915.070   1461.492     5.977     0.529 -26.5
       631   1499.078   1530.355     1.858     0.556 -62.1
       632    194.016   1992.487     9.056     0.956 -90.0
       633   2032.004   1526.353     3.013     0.837  52.1
       634    470.554   1508.224     0.497     0.457   5.8
       635    786.153   1527.705     0.474     0.437  86.8
       636   1298.500   1461.847     0.530     0.522  38.5
       637     28.105   1522.473     0.957     0.776   0.3
       638    246.799   1493.400     0.490     0.400  86.4
       639    467.442   1492.306     2.919     0.719 -24.1
       640   1676.167   1503.450     0.647     0.631  75.1
       641    240.990   1504.676     0.695     0.640 -88.9
       642    701.325   1418.670     0.647     0.643 -45.4
       643   1810.910   1501.165     0.449     0.430 -40.9
       644    978.788   1510.996     0.501     0.295   0.4
       645    413.968   1504.550     5.322     0.559 -25.2
       646   1657.371   1499.167     0.549     0.531 -70.5
       647    490.669   1477.309     0.652     0.550  60.4
       648   1258.108   1385.904     0.492     0.484 -36.4
       649   2031.236   1487.157     0.925     0.797  36.2
       650   1740.675   1475.512     0.500     0.468  89.1
       651   1069.198   1447.126     1.831     0.827  56.0
       652    670.858   1477.214    14.191     0.522 -20.9
       653   1149.061   1463.731     6.825     0.499  30.6
       654    574.034   1483.236     0.960     0.847  26.3
       655     95.915   1392.485     0.771     0.630 -62.1
       656    738.491   1426.519     1.165     0.652  45.1
       657   1650.216   1381.893     0.849     0.367 -15.2
       658   1697.402   1424.243     0.625     0.588 -61.6
       659    145.699   1443.162     0.507     0.499  -7.8
       660   1386.731   1436.593     0.813     0.792  47.4
       661    345.971   1421.583    11.902     0.515   2.1
       662    147.970   1418.655     2.521     0.760  45.4
       663   1470.448   1435.059     7.917     0.712  27.7
       664   1612.874   1440.464     0.511     0.312  74.1
       665    509.998   1425.587     0.557     0.551 -41.8
       666   1067.785   1441.161     0.517     0.498  32.3
       667   1147.280   1437.005     0.702     0.666 -74.6
       668   1799.544   1437.297     0.593     0.567  86.3
       669   1285.601   1428.948     0.491     0.431   7.3
       670   1222.042   1428.290     2.377     0.580   2.3
       671   1938.724   1411.679     0.697     0.682 -59.3
       672   1918.758   1248.011     0.912     0.879  88.3
       673   1676.961   1389.585     0.528     0.257 -89.9
       674    404.452   1777.895     3.098     0.433  85.4
       675    351.724   1414.926     0.601     0.542  79.2
       676    765.456   1347.928     0.498     0.276  -0.4
       677    381.333   1294.311     0.518     0.492  68.4
       678   1668.167   1402.278     3.509     0.815 -54.4
       679   1748.117   1388.810    37.635     3.635  -3.5
       680     76.706   1341.333     1.495     0.846  67.9
       681   1858.947   1381.770     0.647     0.566 -47.6
       682   1470.848   1375.211     0.420     0.346 -65.8
       683    995.001   1379.724     9.128     1.689  60.4
       684   1304.092   1295.796     1.147     0.676  36.0
       685   1738.722   1329.597     0.663     0.649 -35.8
       686    732.472   1367.052     0.679     0.661 -81.7
       687   1315.930   1363.387     0.733     0.667  71.2
       688   1688.574   1343.550     7.164     1.268 -55.2
       689    873.951   1322.694     2.515     0.510 -34.2
       690    113.018   1345.424     0.494     0.278 -88.7
       691   1200.236   1312.093     6.297     0.800  60.3
       692    685.378   1336.351     0.835     0.484  87.2
       693    827.209   1347.281     0.581     0.571 -77.1
       694    300.958   1326.834     4.814     0.628 -32.4
       695    476.280   1330.536     0.515     0.445  77.7
       696    219.207   1315.453     0.683     0.665  67.6
       697    461.359   1302.096     8.940     0.564  70.3
       698    867.034   1281.022     2.702     0.651  14.3
       699   1948.333   1324.927     0.575     0.552  82.1
       700   1801.679   1320.126     0.571     0.541 -49.8
       701   1194.427   1189.620     0.650     0.620 -18.4
       702   1855.010   1306.744     6.444     0.729  50.9
       703   2012.719   1270.959    12.505     0.666  35.7
       704    499.133   1300.935     0.813     0.784 -71.4
       705   1691.861   1258.185     1.031     0.780 -27.0
       706    615.392   1300.137     5.872     1.630   3.2
       707    550.642   1301.747     0.650     0.568   7.5
       708    904.257   1228.095     0.437     0.338  -4.2
       709    967.073   1281.052     0.418     0.401 -61.8
       710    521.465   1281.322     2.510     1.074  -7.0
       711    858.259   1243.008     3.603     0.507 -13.3
       712   1816.576   1301.779     0.676     0.657 -78.5
       713    773.978   1296.978     0.378     0.324 -89.3
       714   1360.635   1285.508     0.786     0.752 -63.3
       715    975.767   1190.149     0.628     0.602 -87.0
       716   1285.892   1289.747     8.140     1.666 -38.7
       717    208.508   1236.569     3.170     2.486  18.7
       718   1090.987   1290.464     0.709     0.611  -6.2
       719   1392.908   1777.619     0.582     0.552 -61.5
       720   1416.533   1200.825     0.516     0.356 -20.6
       721    872.898   1262.710     0.605     0.555 -55.3
       722    140.729   1273.731     0.790     0.757  63.5
       723    749.828   1273.239     3.863     1.795 -52.0
       724     39.167   1272.733     0.547     0.523  89.3
       725   1600.812   1215.077     0.853     0.249   8.5
       726    289.328   1200.579     0.815     0.776 -53.4
       727   1609.948   1234.645     1.968     0.520 -18.1
       728    368.730   1937.709     0.586     0.583 -25.1
       729   1157.518   1205.449     1.180     0.627 -83.1
       730    281.574   1208.535     0.504     0.489  53.7
       731    578.325   1879.936     0.625     0.578  89.6
       732   1261.800   2152.971     0.590     0.578  68.2
       733    621.425   1233.387     2.055     0.874 -42.3
       734   1890.203   1238.330     0.774     0.666  11.8
       735   1760.698   1238.950     2.761     1.194 -80.3
       736    508.983   1202.999     0.316     0.307  -0.2
       737   1325.189   1245.376     7.649     0.518 -40.2
       738   1671.910   1228.496     1.637     0.875 -47.6
       739    506.184   1997.454     5.199     0.614 -85.4
       740    974.551   1892.775     0.764     0.573 -85.9
       741   1693.458   1213.331     0.575     0.385 -40.0
       742    258.210   1219.286     1.847     0.778 -48.7
       743   1956.464   1942.463     1.775     0.683 -84.0
       744    299.741   1219.786     1.257     0.570 -71.9
       745    870.939   1877.539     0.498     0.414 -89.4
       746    997.449   1939.231     0.879     0.704   0.3
       747   1508.358   1700.479     0.500     0.479 -80.4
       748    862.774   1196.403     0.720     0.684  26.5
       749    448.910   1903.020     0.974     0.650 -85.8
       750   1883.162   1206.256     0.581     0.534   3.8
       751   1680.060   1200.578     0.547     0.519  70.5
       752   1514.641   1922.814     1.318     0.726  88.6
       753     30.508   1188.372     0.726     0.666 -58.7
       754    593.181   1786.192     0.486     0.345 -37.7
       755    953.540   1832.936     0.696     0.689 -64.0
       756   1641.058   1929.260     0.718     0.698 -39.2
       757   1037.791   1913.810     0.726     0.659 -82.6
       758   1831.487   1886.565     0.772     0.752  59.4
       759    314.565   1942.538    12.522     6.745 -37.6
       760    597.694   1973.752     8.812     1.349  -6.5
       761   1237.017   1958.437     1.043     0.857  -4.5
       762   1356.242   1783.397     1.011     0.624  44.8
       763     78.294   1959.351     0.626     0.481 -49.0
       764   1116.225   1746.166     1.498     0.512  75.9
       765   1472.733   1934.750     0.557     0.534  69.9
       766    273.242   1722.304     1.093     0.915 -59.1
       767   1413.155   1956.748     0.911     0.754  87.9
       768   1216.941   2025.112     0.459     0.333 -58.1
       769    440.471   1940.891     0.663     0.605 -33.5
       770    879.882   1914.999     1.086     0.772 -54.8
       771   2035.423   1934.310     2.118     1.248 -18.6
       772    232.001   2037.786     3.112     0.666  34.3
       773   1629.748   1725.970     0.434     0.270  -0.6
       774   1983.388   1965.757     0.502     0.412 -24.7
       775    970.587   1930.370     1.405     0.860 -18.8
       776   1556.366   2007.476     0.673     0.652 -55.3
       777   1536.355   1723.303     0.510     0.468 -60.8
       778    952.837   1736.522     0.916     0.598  35.7
       779   1301.028   1739.816     0.878     0.790 -26.6
       780      2.291   1958.218     2.617     0.684  76.8
       781   1884.500   1964.641     3.116     0.515  49.2
       782   1704.398   1736.524     4.246     0.818 -20.6
       783   1039.141   1947.570     1.115     0.783   1.6
       784   1988.764   1942.589     0.547     0.539  35.5
       785   1188.522   1959.181     1.011     0.928  58.8
       786     98.275   1740.692     1.362     0.951  74.9
       787   1581.598   1963.401     0.604     0.440  44.1
       788   1132.665   1682.091     0.472     0.288  -0.3
       789   1549.493   1996.051     1.876     0.987  -5.4
       790   1297.991   1724.155     3.125     0.682  60.8
       791    744.408   1953.218     0.838     0.812 -88.0
       792    971.720   1722.474     1.113     0.335 -46.3
       793    618.194   1685.399    20.680     5.272 -67.3
       794   1981.250   1764.248     4.448     0.652  55.5
       795   1267.369   1934.183     6.028     0.854   2.9
       796    553.464   1733.320     0.846     0.525  26.6
       797    730.010   1980.663     0.844     0.813 -74.3
       798    553.754   1996.798     2.874     1.269  64.3
       799   1211.669   1680.701     2.240     0.673  43.9
       800   1808.937   1756.416     0.493     0.243  88.7
       801   1188.089   1723.790     8.303     1.374  34.5
       802    888.960   1910.498    11.206     0.553 -85.1
       803   1141.170   1769.133     4.257     0.473 -30.4
       804   1177.438   1927.425     5.630     0.510   3.5
       805    415.762   1733.609    16.689     4.912  56.2
       806   1306.142   1979.344     3.213     0.493   9.3
       807    476.761   1925.650     1.468     0.977 -59.1
       808   1550.099   1767.131     1.112     0.815  -1.6
       809    776.606   2001.931    14.849     0.630  15.8
       810    421.100   1770.081     0.590     0.560  72.1
       811   1910.636   1961.831     0.806     0.521 -84.2
       812    312.447   2023.655    10.064     1.556 -35.7
       813    834.096   1995.761    13.690     1.447 -57.9
       814   1410.361   1989.768     0.877     0.735   3.7
       815    902.537   1958.043    13.139     0.587  -2.1
       816    633.705   1972.587     4.211     0.727 -53.1
       817    147.819   1963.830     2.285     0.808  43.9
       818    424.814   1970.890     0.891     0.499 -27.2
       819   1218.595   2034.557     0.714     0.678  53.0
       820   1854.559   2006.872     1.331     0.873   1.0
       821   1392.640   1764.698     7.080     0.592  -3.0
       822    545.419   1978.178     1.033     0.797 -10.1
       823   1617.780   1989.897     1.166     0.715 -89.4
       824   1311.125   1968.052     0.682     0.655 -43.4
       825   1821.751   2007.119     2.217     0.572 -67.6
       826    467.454   1956.525     6.293     0.525  85.6
       827   1650.174   1987.910     0.508     0.483 -29.7
       828   1190.152   2035.297     0.612     0.591  70.3
       829   1553.126   2026.482     1.628     0.788  18.2
       830   1467.961   1986.687     0.680     0.620 -66.1
       831   1336.446   2004.820     0.719     0.595 -59.8
       832   1510.415   2003.827     1.578     0.900 -42.7
       833    153.018   1997.201     1.160     0.705  85.0
