#   1 NUMBER                 Running object number                                     
#   2 X_IMAGE                Object position along x                                    [pixel]
#   3 Y_IMAGE                Object position along y                                    [pixel]
#   4 A_IMAGE                Profile RMS along major axis                               [pixel]
#   5 B_IMAGE                Profile RMS along minor axis                               [pixel]
#   6 THETA_IMAGE            Position angle (CCW/x)                                     [deg]
         1    735.263     76.676    65.732     7.383 -48.9
         2    995.707     65.544    14.705     1.620 -50.3
         3     20.583     59.658    14.921     1.024 -48.0
         4   1688.474     42.434     8.075     3.888  30.0
         5   1341.399     25.623    31.145     0.521  19.0
         6   1060.667     27.219    12.829     4.080   9.3
         7   1533.441     22.227     1.946     1.803  47.6
         8   1145.664     13.749     0.789     0.755  12.5
         9    797.267     11.754     0.740     0.721 -72.4
        10    977.711      3.316     1.886     0.506   5.8
        11   1192.519      3.036     0.747     0.187  -0.4
        12   1866.420      1.000   173.138     0.289   0.0
        13   1587.513     16.088     0.965     0.771 -22.8
        14    459.950     14.483     0.912     0.649 -25.6
        15     71.750     16.239     1.087     0.575  20.3
        16     26.773     14.043     0.849     0.700  -8.4
        17   1389.367     91.190    10.777     0.981  62.6
        18   1526.259     33.617     2.572     0.427 -87.7
        19   1561.024     30.208     0.769     0.714 -81.6
        20   1619.488     30.127     1.273     0.210  68.8
        21   1599.071     22.202     0.402     0.325 -89.7
        22      8.441     25.509     1.120     0.601 -30.6
        23   1012.533     34.555     0.864     0.827 -77.1
        24     17.570     24.216     1.132     0.257 -17.0
        25   1247.959     30.467     0.676     0.675  28.3
        26     10.030     29.155     0.923     0.579 -61.5
        27   1979.432     29.750     0.567     0.550 -77.1
        28   1944.992    119.263    27.118     4.124  18.2
        29   1800.291     58.178     8.140     1.522 -13.8
        30   1526.485     46.938     1.987     0.620  90.0
        31   1479.162     41.023     0.513     0.504  -7.3
        32   1146.380     41.348     0.547     0.530 -49.1
        33    665.113     90.071    10.892     0.992  43.3
        34   1354.029    175.243    49.932     0.660  16.9
        35    511.550     48.882     0.947     0.890 -12.9
        36   1308.834     92.501     6.600     0.532  53.3
        37    381.234     51.650     1.414     0.697  11.0
        38    131.933     47.332     0.486     0.458 -47.3
        39   1304.657     59.524     4.729     0.811  -8.7
        40    581.285     95.996     4.973     2.011  70.3
        41    939.145     76.714     1.887     1.464  86.9
        42   1911.797     59.747     0.436     0.401 -80.6
        43   1692.114     66.813     1.033     0.486 -19.6
        44    900.870     67.358     2.122     0.390   9.8
        45   1882.291     64.912     0.710     0.499  -5.3
        46   1596.442     68.429     0.657     0.645  59.9
        47   1978.662     70.242     0.702     0.524  69.6
        48    816.618     80.203     1.830     0.472  45.0
        49    646.271     73.493     0.551     0.505  14.5
        50   1964.325     78.938     1.221     0.481 -35.5
        51   1890.113     77.526     0.500     0.369  87.1
        52   1620.604     78.396     0.506     0.472 -45.0
        53   1380.363     86.010     0.481     0.174  -1.9
        54   1016.619     88.365     0.834     0.813 -40.6
        55    546.629     90.039     0.764     0.751 -24.4
        56    814.174     90.582     0.800     0.561 -78.6
        57   1850.100    125.063     8.052     1.609  42.4
        58   1674.078    121.392     3.425     1.361  74.9
        59    351.435     89.060     0.574     0.558 -50.8
        60    591.529     91.369     0.696     0.469 -70.6
        61    447.811     90.941     0.505     0.348  21.6
        62   1172.184    105.094     0.867     0.793 -26.6
        63    966.164    159.377    13.780     0.523  31.0
        64    401.921    107.205     0.992     0.767  51.9
        65   1824.434    103.248     0.657     0.645 -75.5
        66   1065.711    126.129     8.888     2.321   6.1
        67    559.133    114.206     4.298     0.472  14.7
        68    858.325    107.643     0.485     0.462 -58.5
        69   1604.860    115.915     0.764     0.731 -69.4
        70    270.125    119.138     1.643     0.319 -86.9
        71   2022.508    110.404     0.501     0.490  16.0
        72    270.207    113.658     0.823     0.358 -75.2
        73    237.115    113.895     0.493     0.475  67.4
        74   1238.166    137.852     3.665     0.872 -54.6
        75    228.972    134.500     2.993     1.533   4.2
        76   1829.132    150.435    12.671     1.891   8.6
        77    270.117    131.311     2.103     0.284  85.8
        78   1364.681    127.107     0.627     0.563  81.4
        79   1989.156    153.578     9.439     1.140  16.8
        80   1669.807    131.334     0.731     0.713 -52.1
        81   1579.661    141.729     0.754     0.749  19.1
        82   1462.002    152.793     6.600     1.252  -5.8
        83    528.678    147.729     2.189     0.819  32.2
        84    140.268    139.061     0.652     0.612 -55.3
        85    978.967    141.873     3.312     0.528   9.4
        86   2032.690    155.118     1.635     1.329  79.5
        87    270.075    208.440     8.481     0.256  89.6
        88   1852.213    154.505     1.862     0.827 -46.2
        89    430.114    165.763     1.073     0.812  -9.9
        90   1804.747    202.161     6.164     0.500 -59.6
        91    867.013    154.574     0.495     0.385  88.8
        92   1644.447    165.709     0.865     0.640   6.4
        93    387.543    173.053     0.909     0.700 -64.0
        94    371.405    169.056     0.677     0.650 -32.8
        95   1602.417    182.619     1.187     0.845   6.8
        96    934.270    177.086     0.551     0.513  87.5
        97   1401.493    241.643    10.809     2.581 -38.2
        98   1185.391    193.061     1.001     0.530 -37.1
        99   1787.586    197.796     1.189     0.880  -8.7
       100   1064.049    190.926     0.406     0.379  79.9
       101   1192.419    194.739     0.804     0.710  -4.0
       102     57.977    190.011     0.341     0.303 -19.6
       103   1774.559    208.995     5.794     1.421  12.3
       104   1396.815    194.601     0.504     0.479  80.4
       105    673.540    200.829     0.872     0.803  36.9
       106   1655.527    199.604     1.236     0.643  53.2
       107    225.054    210.641     2.198     0.849  17.6
       108    259.557    200.729     0.708     0.684 -51.7
       109    219.468    201.763     1.277     0.495  40.4
       110   1904.878    206.617     0.546     0.541  33.5
       111    424.780    210.855     0.841     0.726 -75.4
       112    700.005    254.799     8.405     0.978 -45.9
       113     19.713    210.281     0.565     0.529  35.6
       114   1877.653    218.561     0.796     0.761  -9.0
       115   1163.627    805.576    71.742     1.021  89.5
       116   1852.013    219.307     0.461     0.243 -87.3
       117   1598.596    228.039     0.861     0.792  48.8
       118   1719.396    225.166     0.666     0.615  69.0
       119   1226.807    222.121     0.475     0.192 -37.3
       120   1332.800    255.328     3.976     0.995 -75.4
       121    178.671    239.975     0.717     0.640  56.5
       122    106.371    248.083     1.057     0.841  62.7
       123    614.304    273.378     7.936     0.872 -33.3
       124   1363.949    251.392     1.367     0.935 -36.3
       125   1445.177    239.344     0.476     0.381  85.4
       126    807.710    247.987     0.830     0.715 -59.3
       127    739.064    256.841     0.961     0.893  50.7
       128    126.269    253.387     0.668     0.638 -71.0
       129    932.749    511.501    30.875     5.028  72.9
       130    916.095    253.857     0.424     0.407 -83.4
       131   1707.593    289.986     5.128     0.683  72.0
       132    923.274    259.169     0.693     0.583   8.9
       133   1661.505    262.849     0.514     0.490  50.7
       134   1188.681    275.841     6.267     1.111   7.3
       135   1726.262    266.684     0.734     0.462  85.4
       136    944.393    281.269     2.116     0.411  58.8
       137    363.146    275.206     1.163     0.662 -51.0
       138   1982.250    298.669     4.097     1.119 -41.3
       139   1344.008    286.482     0.834     0.822 -39.6
       140   1242.747    286.226     0.611     0.601 -81.1
       141    274.172    285.397     0.519     0.497 -73.7
       142   2025.408    306.081     3.248     0.865  52.1
       143   1479.698    298.303     2.888     0.873 -19.5
       144    917.718    319.540     4.387     0.719  58.0
       145   1392.273    412.463    14.261     3.459  79.8
       146    122.349    315.380     7.438     0.748 -21.1
       147    175.578    643.595    69.275     1.746 -35.6
       148    736.268    292.077     0.463     0.230  19.7
       149   1245.882    299.000     0.464     0.323  90.0
       150    538.050    298.874     0.351     0.267  89.8
       151    586.654    330.426     2.925     0.732  82.9
       152    857.819    309.474     1.267     0.735 -47.3
       153     53.208    326.681     4.684     0.972  23.2
       154    447.938    312.107     1.036     0.730 -80.7
       155    962.662    361.013    35.439     4.356  -3.4
       156   1017.584    335.506     2.916     1.321  83.4
       157    558.760    315.869     2.175     0.817  10.3
       158    659.394    386.483     8.181     1.770  72.0
       159   1584.378    461.746    16.959     3.939  53.5
       160    602.109    356.345     2.216     1.265 -65.7
       161    353.803    345.695     0.541     0.360 -65.3
       162    591.796    498.784    17.470     3.333  78.1
       163    167.850    354.367     0.505     0.422  85.7
       164      2.686    352.060     1.169     0.249  -3.2
       165      7.976    511.705    10.854     0.820 -89.6
       166    176.844    366.355     2.017     0.755  35.6
       167    638.003    353.825     0.389     0.262  89.9
       168    620.686    387.112     8.106     0.707  22.5
       169   1846.969    357.061     0.917     0.433  44.7
       170    632.672    409.160    10.231     3.864 -29.9
       171    932.224    378.392     1.909     0.907 -37.7
       172    478.980    369.612     0.821     0.580  62.4
       173    331.136    369.916     0.749     0.701  83.8
       174   1535.566    404.349     6.149     1.098  51.0
       175   1552.446    388.815     3.421     1.770 -53.6
       176   1008.960    373.678     0.588     0.575 -17.9
       177    247.278    384.009     1.321     0.794 -51.5
       178   1898.783    381.878     1.414     0.735   9.9
       179    574.242    379.346     0.633     0.629  64.9
       180   1063.975    385.129     0.749     0.711  69.2
       181   1637.871    529.671    17.193     0.557 -78.3
       182    470.848    383.290     0.481     0.408 -80.0
       183    379.703    388.539     0.681     0.658 -70.8
       184   1189.758    386.774     0.539     0.533 -75.7
       185   1319.371    392.644     0.766     0.735 -81.2
       186    154.775    453.542    11.960     0.878 -45.6
       187   1451.212    421.533     7.049     1.196 -34.8
       188    702.460    391.572     0.792     0.714  41.2
       189    485.013    392.368     0.614     0.541 -87.4
       190   1226.121    422.208     3.504     1.653 -37.5
       191    159.905    406.092     0.829     0.793 -58.6
       192   1823.000    407.248     0.962     0.289  90.0
       193     12.055    407.497     0.501     0.434  81.4
       194   1091.365    415.485     0.736     0.673  62.9
       195    729.062    414.573     0.759     0.743  25.5
       196    908.966    419.766     1.920     0.979 -19.7
       197   1690.468    421.546     0.735     0.722  70.7
       198    579.994    424.606     0.563     0.387  89.5
       199    199.256    423.933     0.629     0.435  85.3
       200    571.614    422.501     0.524     0.500  -5.7
       201    672.201    444.008     3.435     0.958  31.3
       202    831.118    425.969     0.516     0.323  88.7
       203    794.859    426.940     0.556     0.347 -87.4
       204   1498.753    436.962     3.035     0.808 -32.3
       205   1174.657    469.968     4.512     2.111 -60.3
       206    500.483    431.449     0.643     0.564  13.8
       207    511.692    429.978     0.483     0.441 -46.3
       208    819.347    435.692     0.841     0.820   0.6
       209     41.600    430.525     0.514     0.475 -52.0
       210    727.837    434.949     0.620     0.562  68.1
       211   1460.189    471.285     3.766     1.032  89.2
       212   1601.685    470.675     3.628     0.860 -89.1
       213   1981.322    441.333     0.750     0.731 -70.0
       214    112.333    443.446     0.506     0.497  -1.3
       215    365.754    455.707     0.905     0.760  58.6
       216    233.527    458.487     1.086     0.801 -25.2
       217    743.618    467.760     4.166     1.187  17.7
       218   1283.377    452.899     0.640     0.606  21.5
       219    503.683    454.127     0.543     0.524  73.9
       220    636.342    462.340     0.899     0.792 -61.0
       221      3.937    457.318     1.165     0.451  54.1
       222    218.087    495.054     3.155     2.244  48.8
       223   1325.654    467.708     0.478     0.453  16.6
       224    796.322    510.844     4.762     1.317 -50.8
       225    605.133    499.319     2.738     0.493  80.8
       226   1470.918    487.480     0.500     0.354 -89.1
       227    679.419    495.540     0.758     0.725  65.1
       228    230.918    517.242     6.092     0.799  29.5
       229    719.046    496.783     0.775     0.630  47.8
       230   1874.519    491.761     0.518     0.494 -12.2
       231   1278.080    502.962     1.079     0.811  53.2
       232   1302.565    498.702     0.695     0.675  65.7
       233    758.632    496.858     2.536     0.297  23.9
       234    407.187    556.886     6.643     0.657  89.9
       235   1466.942    502.310     0.848     0.448  60.4
       236   1807.879    504.252     0.616     0.606  49.5
       237    536.673    522.330     1.051     0.806 -37.6
       238    564.520    562.602     8.582     0.625 -35.5
       239    130.947    554.368     5.055     1.399 -45.4
       240   1159.731    575.057     6.019     0.933 -68.3
       241   1792.357    528.529     0.633     0.548 -11.2
       242   1366.970    530.811     0.608     0.493  79.7
       243    651.181    531.303     6.230     0.478   2.5
       244    619.845    532.891     1.216     0.412 -28.7
       245    538.931    539.901     0.497     0.387 -42.2
       246    816.909    551.509     1.567     0.769 -44.0
       247   1896.744    544.482     0.500     0.436 -86.4
       248    966.082    554.596     0.710     0.624  83.2
       249   1558.627    552.794     0.829     0.643 -90.0
       250   1784.585    550.401     0.905     0.704 -16.6
       251    732.767    549.731     0.505     0.501 -78.7
       252    743.488    551.208     0.782     0.385 -42.2
       253   1140.461    564.517     4.589     1.226   3.3
       254    602.033    555.984     0.427     0.385  89.1
       255    905.251    564.252     1.701     0.595  -5.2
       256   1236.534    560.894     0.499     0.308  -0.8
       257     19.710    560.659     0.474     0.454  81.5
       258    719.912    563.438     0.496     0.425  85.9
       259    866.306    597.060     4.861     0.518 -82.7
       260   1485.493    566.964     0.501     0.496  22.5
       261   1932.072    645.067    12.246     2.580  46.3
       262   1866.744    586.658     1.189     0.722   7.5
       263    779.889    734.361    18.617     1.196 -77.8
       264   1392.269    595.366     1.984     0.757 -25.0
       265   1437.917    590.319     0.494     0.397  70.0
       266    905.244    595.961     1.437     0.583  20.1
       267    880.165    609.587     3.233     0.480 -52.4
       268   1374.553    622.244    13.635     0.803 -12.3
       269    640.341    594.801     0.484     0.453   5.0
       270    204.442    604.443     0.631     0.561  53.8
       271    790.940    661.546    12.060     6.403  27.3
       272    689.923    604.640     0.584     0.576 -14.7
       273     83.041    619.208     2.803     1.016 -10.8
       274   1184.802    709.419    12.492     1.729  81.7
       275   2004.131    613.514     0.602     0.559 -45.5
       276   1973.386    619.749     0.741     0.714 -25.9
       277    947.048    634.118     1.869     0.931  75.5
       278   1464.629    625.272     0.778     0.761  29.9
       279   1155.130    629.676     0.712     0.618  17.1
       280    961.863    635.868     2.426     0.637 -26.1
       281    736.011    630.313     0.923     0.455  28.6
       282   1144.034    636.533     0.701     0.678  25.4
       283    214.742    637.465     0.723     0.701 -82.1
       284   1823.062    643.542     0.853     0.821 -57.6
       285    852.034    636.623     0.485     0.425  88.4
       286    198.214    644.891     1.428     0.760   7.1
       287    781.999    670.000    10.390     0.513 -16.4
       288   1121.211    651.043     0.520     0.510  30.0
       289    620.386    657.482     0.735     0.708  78.7
       290   1494.196    693.903     8.029     0.518 -32.9
       291   1695.102    683.370     2.502     0.810 -80.3
       292   1766.200    670.159     0.489     0.234  40.9
       293   1395.232    679.735     0.445     0.418 -66.5
       294    536.649    702.236    12.805     1.314   2.6
       295   1533.435    695.800     0.706     0.663 -56.5
       296    852.002    715.279     3.631     1.581  88.1
       297   1871.141    695.902     0.758     0.526 -32.3
       298   1953.049    722.908     3.315     2.055 -74.7
       299   1671.108    712.758     2.842     0.776 -35.9
       300    331.817    705.949     0.823     0.711 -76.4
       301    164.290    721.830    11.583     2.135  -2.8
       302   2019.029    718.720     1.455     0.942  83.8
       303   1574.741    708.605     0.716     0.674 -43.5
       304   1988.493    708.174     0.525     0.516   9.7
       305   1296.668    709.099     0.564     0.555  79.2
       306    596.406    714.958     0.748     0.739 -45.4
       307   1772.547    708.500     0.514     0.483 -47.0
       308    985.068    725.401     0.990     0.843 -12.0
       309    324.493    717.978     0.577     0.324   0.5
       310   1731.419    743.307     3.231     0.649 -51.7
       311   1092.655    723.970     0.728     0.680  71.7
       312   1836.929    731.344     1.200     0.540 -46.7
       313    738.186    728.559     0.526     0.450  68.6
       314   1745.032    742.254     1.714     0.740 -83.2
       315    907.466    734.085     0.817     0.767  -0.9
       316   1864.262    734.318     1.154     0.628  12.4
       317    276.261    734.330     0.518     0.513 -70.0
       318    145.056    737.735     0.715     0.703  -9.3
       319   1250.432    758.695     5.865     1.366 -21.6
       320   1983.493    746.677     0.614     0.600 -46.3
       321    376.899    753.928     0.862     0.769 -66.8
       322    732.505    751.995     0.501     0.429   7.7
       323    218.885    761.899     7.274     0.511  -8.2
       324    810.402    769.928     2.147     0.856  49.2
       325   1273.184    759.745     0.624     0.598  73.4
       326   1396.300    763.701     0.528     0.419  48.9
       327   1216.425    810.790     6.679     0.775  43.6
       328   1806.839    788.651     2.293     0.330 -83.1
       329    293.337    773.140     0.553     0.538 -67.2
       330   1510.964    777.481     0.584     0.565 -44.1
       331    486.810    783.880     1.902     0.639  54.4
       332   1643.379    825.270    10.867     1.592  35.6
       333    901.024    776.543     0.498     0.227  89.7
       334   1416.717    780.690     0.497     0.446  72.7
       335   1414.988    933.849    20.987     2.028  83.1
       336    149.262    839.244    10.102     4.001 -30.1
       337   1652.790    787.322     0.994     0.729 -20.8
       338    486.827    810.881     7.787     1.696 -19.6
       339    725.178    791.517     0.823     0.807   3.2
       340   1178.680    790.699     0.681     0.625 -63.9
       341   1139.991    788.659     0.474     0.331 -88.6
       342   1123.238    798.001     0.734     0.641   0.3
       343   1199.976    799.441     0.706     0.663 -63.6
       344    493.469    795.618     0.499     0.486   7.8
       345    412.368    810.777     1.188     0.881  84.0
       346    911.841    800.805     0.507     0.502 -84.0
       347   1269.020    801.380     0.651     0.335  39.0
       348   1744.904    807.029     0.636     0.610  85.1
       349   1138.816    837.587     5.817     0.519  38.2
       350      3.294    867.102     7.465     0.969  82.5
       351     58.989    810.854     0.533     0.307 -89.5
       352   1665.157    812.333     0.471     0.364 -88.3
       353   1450.846    846.050     3.806     0.595 -53.4
       354    434.283    926.654    12.207     2.286  83.9
       355    624.279    824.815     0.671     0.667 -59.0
       356   1451.628    835.059     0.839     0.775  88.7
       357    262.543    832.265     0.663     0.608  40.1
       358   1570.614    915.825    12.406     2.551 -52.0
       359   1953.517    853.742     3.165     1.352 -58.4
       360    747.124    841.398     1.337     0.748 -42.4
       361    423.782    896.085     7.156     1.363  56.7
       362    304.566    859.107     0.855     0.810  59.5
       363   1350.125    873.432     1.882     1.085  68.0
       364   1193.274    867.922     2.086     1.092 -28.7
       365   1214.397    895.597     8.289     3.222 -14.0
       366   1776.013    868.869     2.892     0.938 -11.9
       367    231.077    860.222     0.468     0.280 -80.3
       368   1994.023    870.600     9.309     0.497  -6.5
       369   1159.589    868.634     0.977     0.440 -50.9
       370    386.253    885.495     2.619     1.099 -84.4
       371    930.449    868.479     0.753     0.625  83.7
       372    377.398    907.537     5.939     0.786 -63.9
       373   1121.936    873.453     0.694     0.663  69.3
       374   1174.423    890.628     7.708     0.737 -17.3
       375   1574.476    879.118     1.880     0.844  20.6
       376   1225.652    877.916     0.791     0.644   9.9
       377   1631.216    878.689     0.641     0.619  79.6
       378    986.402    881.679     0.749     0.728 -34.8
       379   1919.790    896.217     7.848     0.497  11.4
       380   1044.998    893.044     1.543     0.797  43.8
       381   1809.575    942.731    11.820     0.982  29.5
       382   1365.325    892.940     0.783     0.772  81.4
       383    951.583    891.662     0.511     0.479 -20.3
       384   1887.067    901.412     0.820     0.798  48.0
       385   1750.253    905.863     1.709     0.323 -65.1
       386   1861.936    902.597     0.655     0.644 -81.4
       387   1611.617    901.208     0.643     0.566 -66.8
       388   1080.455    904.898     0.672     0.616 -30.2
       389    951.916    904.007     1.461     0.101  -0.2
       390     65.070    907.352     0.591     0.457 -62.7
       391   1086.102    940.078     4.066     1.020  68.3
       392   2026.331    923.908     6.538     0.646  13.6
       393   1536.353    954.701     6.554     0.494  47.8
       394    652.641    914.778     0.581     0.533   6.1
       395    680.504    918.218     0.591     0.543 -60.4
       396      3.217    924.459     0.661     0.645 -47.4
       397   1846.598    936.384     1.104     0.663  33.2
       398    459.964    934.660     0.703     0.659 -84.0
       399   1306.915    933.693     0.707     0.530  53.5
       400   1075.084    931.660     0.494     0.457 -88.1
       401    482.037    932.286     0.641     0.611 -23.0
       402   1336.296    937.972     0.713     0.681  33.3
       403    179.989    938.952     0.384     0.266  88.0
       404    170.004   1040.954    12.551     0.559  71.4
       405    773.480    950.830     2.849     1.208  30.8
       406   1018.686   1006.367     8.284     0.802 -75.2
       407     67.814    971.577     3.684     1.937 -74.5
       408   1117.436    955.313     1.029     0.832 -34.4
       409    829.598    947.501     0.628     0.479  75.0
       410   1373.759    947.831     0.488     0.483   0.8
       411   1846.585    967.997    17.057     0.494   5.7
       412    621.619   1005.465     9.756     1.463 -43.9
       413    731.216    976.497     3.037     0.795 -79.9
       414    466.459    959.101     0.720     0.709  -6.2
       415     14.275    966.217     0.829     0.800  75.8
       416    460.551    972.795     5.347     1.241  22.9
       417    775.920    973.399     2.069     0.844  46.1
       418   1629.059    969.768     2.207     0.624  16.6
       419     46.018    968.096     4.466     0.569   2.8
       420   1175.831    986.842     2.275     1.910  14.5
       421   1641.513    969.171     0.637     0.612  34.3
       422      1.048    974.022     0.672     0.212 -88.1
       423    658.064    979.785     0.576     0.550   9.2
       424   1697.938    985.227     0.659     0.631  59.4
       425    225.662   1011.404     2.100     1.323 -74.7
       426   1883.794    987.690     0.489     0.403 -83.5
       427   1238.450    988.945     0.497     0.228  -0.0
       428     72.169   1011.602     4.757     1.035  13.7
       429     78.032   1024.004     3.097     1.766 -53.5
       430   1324.711   1009.629     0.900     0.813 -24.7
       431   1923.660   1009.214     0.525     0.487 -66.5
       432    208.424   1014.709     0.816     0.806  45.2
       433    634.805   1012.435     0.649     0.622   4.3
       434    943.036   1020.703     8.840     0.433  -1.8
       435   1118.691   1041.561     2.452     0.868  81.9
       436   1548.625   1023.601     0.534     0.505  12.6
       437   1988.734   1033.390     0.855     0.791  -9.5
       438     40.545   1025.461     0.632     0.380 -41.9
       439   1156.539   1030.735     0.759     0.678 -87.9
       440    255.347   1143.933    13.061     0.619  89.5
       441   1608.656   1032.950     0.603     0.539 -62.5
       442    349.546   1045.640     0.855     0.581  89.4
       443    141.259   1039.707     0.550     0.543 -75.2
       444      5.568   1054.155     3.823     0.522  20.5
       445   2036.789   1044.217     0.416     0.404  55.9
       446   1039.101   1054.489     0.576     0.572  -1.0
       447    808.547   1076.947     3.351     0.642  56.2
       448     15.891   1054.581     0.498     0.314  82.6
       449    340.029   1079.504     3.361     1.264 -45.0
       450    941.853   1062.262     0.774     0.736  57.6
       451    871.744   1081.016     5.703     2.151  -2.0
       452   1310.475   1119.865     8.362     0.546  56.3
       453   1912.813   1068.986     0.845     0.721 -81.6
       454    800.255   1096.280     3.734     0.730  89.4
       455    998.151   1085.069    25.139     0.681   3.0
       456   1122.238   1072.536     0.519     0.479 -64.1
       457   1668.678   1073.718     0.597     0.596 -82.1
       458   1597.048   1075.885     1.001     0.842 -88.5
       459    123.138   1073.675     0.575     0.565  25.5
       460   1274.272   1078.862     0.841     0.815  29.2
       461    196.678   1076.412     0.819     0.731 -75.8
       462   1455.304   1079.267     0.822     0.594 -58.8
       463     29.705   1081.705     0.585     0.543  -0.3
       464      4.887   1105.689     2.683     1.096  52.7
       465    997.797   1090.972     0.628     0.574  83.7
       466   1661.903   1095.418     0.512     0.438  82.9
       467   1892.672   1157.301     8.246     0.825 -72.4
       468    213.029   1098.579     0.642     0.594  24.0
       469   1333.856   1109.031     0.702     0.678  35.9
       470   1087.375   1110.711     0.780     0.764  -1.0
       471   1827.971   1142.623     4.982     1.269  49.4
       472    490.179   1110.617     0.572     0.566 -29.4
       473    364.407   1117.122     0.517     0.511  79.1
       474   1360.889   1124.113     1.012     0.752 -61.0
       475    313.749   1116.578     0.922     0.440 -16.1
       476   1665.286   1120.797     0.452     0.402   3.1
       477   2009.606   1128.891     0.832     0.773   2.3
       478   1798.630   1126.662     1.083     0.530  -0.8
       479   1781.035   1124.456     0.604     0.493 -12.0
       480   1598.258   1184.481     7.303     0.541 -80.9
       481    521.453   1146.943     1.120     0.808 -52.6
       482   1768.671   1140.612     0.711     0.489 -52.7
       483   1675.895   1174.490     4.543     1.007  73.3
       484    999.718   1146.063     1.233     0.472  38.2
       485    382.999   1148.739     0.736     0.619 -54.3
       486     35.114   1157.923     1.970     0.652  10.8
       487   1513.639   1167.816     2.671     1.572 -17.5
       488   1113.153   1155.816     0.512     0.475  88.0
       489   1788.720   1195.245     4.485     0.653  84.7
       490    932.175   1179.115    15.318     2.087   4.2
       491    461.263   1164.804     0.945     0.674  -2.7
       492   1427.612   1167.738     0.621     0.470  71.8
       493   1388.458   1175.146     1.293     0.827  23.4
       494    921.028   1172.582     0.873     0.718   6.0
       495   1181.785   1220.444     9.249     1.111 -43.2
       496   1460.510   1180.954    10.943     1.374   6.9
       497    754.994   1231.442     8.987     2.841  36.9
       498   1532.371   1201.392     3.992     2.316  49.5
       499   1262.880   1175.015     0.375     0.345  -6.8
       500   1196.690   1195.727     3.172     0.853  86.7
       501    521.333   1185.824     1.761     0.255  74.5
       502   1089.525   1187.493     0.990     0.827  72.4
       503    181.983   1180.816     0.485     0.319  89.7
       504    174.929   1993.282     0.643     0.617 -71.1
       505   1402.446    952.330   697.619   337.546  75.1
       506    194.016   1992.497     9.078     0.956 -90.0
       507    425.751   1787.964     0.595     0.566 -42.7
       508   1918.423   1836.472     0.682     0.591 -51.6
       509    892.035   1822.669     0.473     0.365 -80.6
       510    292.549   1823.099     0.647     0.611  63.7
       511   1423.694   1769.481     1.518     0.549  74.7
       512    430.248   1794.635     8.187     1.365  13.8
       513    198.514   1753.356     0.502     0.476 -17.9
       514   1496.528   1824.223     1.814     0.372 -28.1
       515     77.597   1676.154     1.436     0.688 -14.0
       516    498.147   1685.296     3.052     1.456 -30.3
       517   1412.172   1750.733     0.467     0.431 -89.9
       518   1270.012   1751.509     0.655     0.418 -80.7
       519    366.096   1807.745     0.759     0.732  75.8
       520   1402.098   1798.065     5.558     0.934  49.3
       521    456.537   1808.820     0.830     0.752 -45.9
       522   1050.220   1780.559     0.836     0.821  35.8
       523   1923.991   1766.745     0.455     0.292 -81.2
       524   1299.931   1758.175     0.645     0.618  84.4
       525    495.623   1796.390     0.656     0.523 -61.4
       526   1756.967   1794.651     3.932     2.793  51.1
       527   1875.047   1788.136     0.825     0.500  54.0
       528    974.930   1768.927     0.836     0.762 -65.6
       529   1553.898   1786.242     7.628     0.540  -5.0
       530   1637.329   1771.121     0.473     0.323   8.3
       531    806.796   1769.247     3.048     0.706 -47.5
       532    300.034   1768.852     0.622     0.591  69.7
       533   1537.200   1583.481     0.666     0.626 -45.4
       534    513.678   1757.558     2.517     0.545  33.7
       535    537.785   1775.208     0.512     0.509  78.0
       536    653.092   1743.185     4.343     0.731 -84.5
       537     37.006   1767.991     0.311     0.299  89.5
       538    174.202   1752.442     0.936     0.617 -24.0
       539    476.453   1760.547     1.232     0.844  -7.7
       540   1615.236   1733.674     0.471     0.422  78.2
       541   1158.144   1754.566     0.823     0.778  54.6
       542    792.468   1729.681     4.102     1.375  81.2
       543   1956.962   1689.093     0.718     0.657  46.9
       544   1770.655   1690.217     0.740     0.665  88.0
       545    785.253   1734.457     0.598     0.561  48.9
       546    691.740   1744.017     0.724     0.655  37.4
       547   1977.298   1736.571     0.522     0.505 -88.2
       548    628.875   1736.092     0.647     0.517  -9.0
       549    675.555   1694.964     0.712     0.691  19.3
       550   1581.356   1723.659     0.654     0.648 -69.6
       551    987.561   1712.426     0.682     0.652 -26.1
       552    271.278   1724.666     0.472     0.448  84.5
       553    843.627   1595.058     9.910     2.031  73.0
       554    305.526   1714.890     0.717     0.690 -51.8
       555    344.491   1304.908     0.579     0.496 -78.6
       556   1131.419   1698.938     1.227     0.917  82.1
       557   1085.728   1715.996     8.061     0.878 -62.7
       558   1694.530   1692.823     0.636     0.494  80.0
       559   1651.440   1711.924     0.508     0.372 -18.0
       560    154.219   1713.279     0.801     0.416  54.1
       561   1859.043   1691.403     0.737     0.713  51.6
       562    763.704   1718.399     0.747     0.649  52.5
       563   1341.424   1713.675     7.979     2.401 -57.6
       564   1779.924   1713.071     0.640     0.630 -13.4
       565    866.814   1702.395     0.549     0.342  54.4
       566    417.959   1667.299     0.612     0.587  16.1
       567   1377.920   1701.339     0.790     0.662   3.8
       568    604.923   1696.359    11.146     0.510  -3.8
       569    361.621   1672.050     3.899     0.569 -47.9
       570   1794.024   1483.160     0.681     0.661 -24.9
       571   1737.215   1692.889     0.822     0.759  31.0
       572    965.967   1654.461     1.000     0.782  45.7
       573   1660.368   1680.361     2.827     0.486  23.7
       574   1818.501   1588.214     0.693     0.610  -2.5
       575   1347.825   1665.631     0.936     0.745 -72.9
       576   1942.304   1659.811     0.799     0.766 -49.9
       577    881.324   1646.632     1.247     0.814  62.8
       578   1577.797   1650.686     0.704     0.682 -57.5
       579    499.377   1615.572     0.886     0.484  48.7
       580   1347.405   1645.013     0.500     0.464 -31.3
       581    212.078   1635.940     0.631     0.612  34.2
       582   1123.792   1629.654     5.534     0.511   3.8
       583   1449.403   1648.379     0.617     0.582  41.5
       584    362.032   1627.008     5.771     1.316  38.4
       585    467.936   1486.490     0.691     0.666  89.5
       586   1643.570   1624.332     0.649     0.487  10.1
       587   1191.998   1625.429     0.802     0.293  89.9
       588    424.475   1615.849     2.869     0.412  66.2
       589   1269.553   1615.047    10.712     5.931  47.4
       590   1783.206   1622.659     0.674     0.391  79.4
       591    617.757   1564.763    16.633     0.520 -42.0
       592   1310.593   1608.582     0.772     0.748 -83.6
       593    118.534   1509.589     0.502     0.489 -29.6
       594    253.502   1609.914     1.988     0.471 -27.9
       595    275.246   1596.204     0.492     0.471 -27.6
       596    179.140   1595.538     2.151     0.781  84.2
       597   1936.738   1477.784     5.013     0.889 -41.3
       598    128.805   1599.636     0.647     0.618  31.1
       599   1881.018   1592.936     0.384     0.344 -88.5
       600    176.084   1535.088     1.053     0.759  81.1
       601    828.239   1526.408     0.512     0.490  89.1
       602   1781.362   1863.693     0.515     0.502  32.1
       603   1886.965   1506.331     7.985     0.494 -38.6
       604    973.799   1562.362     1.324     0.842  -3.5
       605    109.498   1477.337     4.726     1.203  71.4
       606    292.394   1505.473     5.992     0.692 -62.7
       607      6.221   1513.193     3.500     1.087  -2.6
       608   1891.137   1389.392     2.600     1.137  75.1
       609   1276.583   1532.943     0.565     0.531  -0.9
       610    881.628   1571.912     7.062     1.079 -12.3
       611    245.362   1514.654     0.792     0.777 -71.4
       612   1132.835   1540.486     1.186     0.742 -42.6
       613   1636.854   1560.151     7.427     0.684 -37.3
       614   1568.171   1536.478     0.500     0.433 -90.0
       615    330.676   1552.974     0.468     0.238  -1.3
       616   1533.290   1531.117     1.133     0.660  12.5
       617    690.856   1523.140     1.076     0.771  53.7
       618   1993.809   1362.354     4.471     1.737  -5.7
       619    794.534   1560.942     0.543     0.401  14.3
       620   1682.172   1540.497     4.622     0.497  47.3
       621   1173.377   1546.514     4.605     1.683  52.4
       622    100.166   1542.797     0.577     0.511 -84.0
       623   1726.519   1538.626    10.253     1.343   9.6
       624    616.811   1539.205     0.637     0.604 -49.4
       625   1801.694   1537.726     1.037     0.613 -21.1
       626   1073.120   1516.146     0.552     0.538 -81.6
       627   1806.526   1361.021     0.500     0.314   3.5
       628   1369.362   1498.103     0.702     0.666  28.0
       629    594.180   1493.428     0.919     0.754  30.5
       630   1829.419   1508.799     0.510     0.485   4.6
       631    849.267   1509.819     0.514     0.498  74.1
       632     31.924   1505.324     0.607     0.535  13.1
       633    968.997   1490.904     0.648     0.557  19.9
       634   1485.346   1478.040     1.063     0.751 -84.6
       635    588.466   1497.331     0.764     0.738 -80.0
       636    960.929   1489.938     0.587     0.257 -89.3
       637   1568.843   1493.929     3.634     1.557 -57.5
       638   1318.316   1500.613     0.553     0.488  54.1
       639   1012.540   1495.071     4.524     1.176   2.9
       640   1810.950   1501.213     0.461     0.399 -23.3
       641    851.422   1345.881     1.433     0.790 -41.3
       642     64.962   1337.676     0.918     0.844  38.9
       643   1986.405   1335.526     0.686     0.645 -34.9
       644    783.149   1418.472     0.693     0.638  73.1
       645    237.604   1455.764     2.303     1.121 -66.6
       646    706.217   1481.113     0.711     0.635  41.0
       647     62.962   1399.954     0.412     0.401 -77.9
       648    686.404   1334.203     1.657     0.545  78.8
       649    805.308   1461.001     1.333     0.529 -62.0
       650   1794.440   1334.958     0.860     0.651 -83.9
       651    415.593   1447.788     6.810     2.189  62.2
       652    762.894   1455.722     0.461     0.334 -89.7
       653    995.329   1459.561     0.507     0.495  18.9
       654    359.410   1426.068     0.781     0.685 -40.7
       655   1737.543   1456.668     7.185     0.811  -5.8
       656    131.010   1451.003     0.317     0.305 -89.8
       657   1813.120   1438.891     0.927     0.803   5.3
       658    277.609   1404.185     0.568     0.547  59.0
       659    820.144   1447.019     0.562     0.548 -71.0
       660   1507.593   1413.146     0.838     0.806 -47.8
       661    682.828   1407.700     3.007     1.268  54.4
       662    595.294   1339.821     0.633     0.556  69.6
       663   1106.205   1301.948     0.840     0.782  42.4
       664   1237.262   1340.189     8.587     0.637   2.5
       665     84.084   1407.741     0.438     0.278  89.2
       666    599.321   1438.267     0.703     0.691 -52.3
       667   1488.079   1418.436     0.785     0.732 -44.9
       668    577.969   1433.020     0.653     0.629 -59.4
       669   1693.414   1425.679     0.834     0.715  89.3
       670    252.611   1429.322     0.795     0.779 -63.6
       671    939.275   1417.411     1.768     0.843  32.4
       672   1486.546   1436.894     0.498     0.455   1.9
       673   1121.959   1376.245     0.430     0.197  89.4
       674   1594.503   1423.186     0.676     0.575  19.6
       675    568.907   1416.240    13.734     1.538   4.5
       676   1734.871   1373.923     4.638     1.070  61.3
       677    680.863   1397.527     3.807     0.699 -46.7
       678   1776.661   1407.099     8.832     0.818  24.8
       679   1432.879   1413.854     5.894     0.826 -62.4
       680   1784.743   1330.326     0.469     0.437 -86.2
       681   1161.818   1378.966     0.816     0.779 -29.3
       682   1413.998   1398.381     2.078     0.367  30.2
       683    851.416   1360.844     7.846     0.528  47.8
       684   1607.583   1397.698     1.867     0.839 -82.9
       685    633.595   1334.757     3.621     1.542 -38.9
       686   1411.599   1351.716     0.752     0.739  42.0
       687    384.329   1342.757     0.596     0.322 -42.3
       688    880.102   1386.281     2.917     0.505 -14.8
       689    116.241   1378.953     5.430     0.704  56.3
       690    529.750   1355.477     1.050     0.666  38.4
       691   1271.304   1382.332     0.806     0.598 -64.0
       692   1309.588   1363.793     9.401     2.618 -28.5
       693   1957.736   1388.823     0.981     0.527 -16.8
       694   1770.368   1373.138     3.440     0.555 -80.7
       695    401.216   1367.535     0.625     0.604 -35.3
       696    685.157   1354.124     3.890     0.421 -84.4
       697   1419.592   1364.920     0.621     0.593  -1.6
       698    744.266   1237.044     0.517     0.498  17.0
       699   1209.776   1315.914    18.829     0.494 -50.9
       700    831.470   1360.464     9.026     1.468  28.8
       701   1059.358   1360.659     0.614     0.604  31.8
       702    424.256   1356.182    22.907     0.668  -3.9
       703   1417.250   1360.136     0.535     0.524 -60.9
       704    595.137   1355.454     1.530     0.408 -56.7
       705    518.090   1234.721     5.426     1.079   2.7
       706    317.513   1308.120     6.042     0.533  28.9
       707   1435.758   1311.954     2.445     0.638  86.8
       708   1934.873   1300.342     0.946     0.327 -55.0
       709   1946.914   1295.105     4.914     1.023  79.2
       710    733.069   1191.731     1.267     0.734   3.8
       711   1330.112   1238.125     0.375     0.327  69.3
       712   1183.778   1237.438     1.903     0.485  87.1
       713    778.879   1291.108     0.762     0.750  87.2
       714    549.546   1279.434     0.810     0.779  75.1
       715   1546.370   1287.724     0.751     0.738  14.9
       716    644.720   1296.701     5.723     0.992 -89.4
       717   1384.856   1240.554     0.550     0.517  76.0
       718   1399.638   1267.739     2.281     0.393  33.7
       719   1737.988   1277.156     0.375     0.294 -87.6
       720   1908.349   1288.484     0.777     0.749 -35.7
       721    895.038   1294.975     0.806     0.669  43.5
       722    861.232   1294.793     0.632     0.596   0.7
       723   1781.094   1281.256     0.507     0.487 -80.3
       724   1488.384   1251.522     0.902     0.772  87.6
       725   1956.193   1274.809     0.758     0.724  80.0
       726   1866.408   1282.367     0.495     0.478 -28.6
       727   1252.841   1241.925     0.738     0.694  73.4
       728    458.263   1215.706     1.190     0.770 -11.1
       729   1218.699   1244.379     0.485     0.458 -87.0
       730   2021.146   1239.002    12.277     0.624  -2.1
       731   1677.771   1267.325     1.190     0.477 -23.5
       732    927.175   1258.703     0.729     0.716 -57.6
       733    893.199   1250.535     0.561     0.322  56.0
       734    634.267   1247.514     0.570     0.448 -52.6
       735    502.762   1256.987     1.603     0.779 -31.7
       736     25.560   1681.917     1.347     0.947  -3.6
       737   1551.032   1245.578     2.622     0.651  17.1
       738    897.519   1253.656     0.879     0.489  60.4
       739   1908.169   1243.046     0.756     0.716 -51.4
       740    830.654   1247.894     0.827     0.796  78.3
       741   1314.713   1230.149     7.131     1.057   2.4
       742   1694.902   1215.854     2.635     0.914  59.3
       743   1101.351   1236.389     0.661     0.207  45.6
       744    314.182   1917.831    16.283     0.602 -42.9
       745   1658.173   1221.206     1.190     0.860 -79.4
       746    519.750   1849.499     1.170     0.262 -72.4
       747    207.691   1658.041     1.831     0.772 -48.7
       748   1189.938   1205.821     0.983     0.309  15.3
       749     18.747   1218.116     0.435     0.388   4.6
       750    421.421   1879.066     1.212     0.579  39.8
       751   1528.069   1892.014     0.732     0.695  76.9
       752    674.369   1216.559     0.520     0.457 -51.3
       753   1497.114   1471.018     0.734     0.681  63.9
       754    476.722   1202.960     1.226     0.674  74.0
       755   1263.524   1196.120     2.210     0.779   4.3
       756    128.901   1198.119     1.356     0.741  77.4
       757     89.879   1204.667     0.958     0.321 -55.9
       758    745.475   1797.181     0.518     0.497  71.5
       759   1335.000   1196.485     2.196     0.289  90.0
       760    142.678   1206.255     0.644     0.577  32.7
       761   1917.539   1203.791     0.609     0.588  82.5
       762    272.288   1203.266     0.620     0.569 -24.7
       763    404.509   1872.129     0.623     0.422   8.7
       764   1264.741   1882.655     0.758     0.739  21.3
       765    563.731   1823.769     3.432     0.660 -14.7
       766    165.507   1866.609     2.215     0.769  80.6
       767   1707.046   1883.365    39.823     5.933 -27.8
       768     67.624   1857.102     0.826     0.805 -40.7
       769    555.291   1668.644     5.199     0.849 -43.1
       770    752.110   1964.364     0.702     0.647  32.8
       771     15.861   1844.070     0.407     0.286 -47.7
       772    494.082   1946.326     0.852     0.639 -49.5
       773   2019.252   1891.596    23.501     2.507 -56.5
       774    661.358   1662.129     0.739     0.175  25.0
       775   1928.000   1865.802     0.508     0.289  90.0
       776   1142.929   1889.077     2.608     0.341 -63.7
       777    891.378   1229.881     0.577     0.557 -41.0
       778    518.987   1901.932     6.030     0.499 -88.5
       779   1437.404   1655.242     0.559     0.537  -7.3
       780    810.013   1935.600     0.573     0.311  88.9
       781   1046.731   1862.441     0.673     0.624  64.7
       782     14.716   1676.765     2.423     0.792 -60.4
       783   1462.611   1323.085     0.534     0.466 -56.5
       784   1958.014   1452.186    14.740     3.980 -78.0
       785    958.058   1920.948     0.503     0.425 -37.1
       786    907.861   1901.909     1.010     0.765  10.0
       787     53.858   2027.581     0.875     0.851  72.0
       788   1502.000   1904.208     0.475     0.408 -40.8
       789    277.720   1957.978     0.613     0.595  87.0
       790    917.880   1823.910     0.608     0.591  30.0
       791      7.561   1890.843     2.835     0.811 -38.9
       792    677.634   1931.613     5.854     0.742  -1.1
       793    684.792   1910.707     2.223     1.005  13.9
       794   1670.239   1826.538    32.808     0.549 -28.5
       795   1750.150   1958.440     0.902     0.497  64.1
       796   1995.504   1964.455     1.509     0.342  32.5
       797     22.531   1959.201     0.504     0.395  12.6
       798    915.945   1911.044     0.854     0.685  89.5
       799    983.354   1905.539     8.920     0.556  -7.7
       800    897.732   1901.884     1.216     0.410  81.6
       801    675.860   1650.853     3.231     0.512  32.6
       802   1455.914   1614.051     0.801     0.602 -85.2
       803   2038.416   1323.128     2.875     0.601  71.9
       804   1003.680   1480.921     0.507     0.472 -53.6
       805   1125.168   1893.902     1.939     0.834   1.1
       806   1558.164   1793.039     0.693     0.672  72.5
       807   1652.917   1482.302     1.094     0.398 -30.0
       808     73.559   1876.220     0.719     0.647   8.7
       809   1847.104   1918.277     9.587     0.556  68.1
       810   1990.535   1957.114     0.996     0.358  -1.4
       811   1576.859   1328.143     0.352     0.347  57.1
       812    564.193   1952.191     1.039     0.757  -5.9
       813     17.021   1988.884     0.722     0.637  -8.7
       814   1777.599   1335.851     0.490     0.455  -1.7
       815    941.549   1655.474     3.367     0.503  38.5
       816   1387.151   1325.447     2.368     0.501   5.9
       817   1310.522   1844.455     4.245     0.628  -6.9
       818    131.847   1931.536     6.281     0.520   7.2
       819    685.666   1846.808     0.473     0.392  -7.6
       820    583.542   1942.232     0.670     0.614  -8.3
       821   1693.129   1324.378     0.485     0.335 -88.5
       822    972.665   2039.531    14.138     0.442   1.1
       823    478.926   1846.805    11.972     8.470 -42.6
       824    692.415   1944.003     0.494     0.339  -5.4
       825    256.452   1326.872     1.188     0.598 -78.8
       826   1935.739   2035.047     0.440     0.299  -4.7
       827   1108.185   1658.064     2.237     0.985  59.5
       828   1133.245   2019.878     0.725     0.617 -44.1
       829   1813.869   1934.298     0.886     0.816 -45.3
       830    126.071   2022.515     0.636     0.561 -42.5
       831    501.746   1478.126     0.638     0.514 -44.2
       832   1715.842   1969.794     0.705     0.685 -47.1
       833   1899.557   1971.990     0.837     0.788 -65.8
       834   1121.958   1478.830     0.475     0.351  85.1
       835   1930.439   2011.137     0.500     0.392  -2.0
       836   2026.414   2038.972     1.722     0.591  26.3
       837    678.831   1954.874     0.575     0.495 -47.2
       838   1530.418   1980.953     0.520     0.443   3.5
       839   1156.893   2031.020     0.746     0.727  79.0
       840    243.297   2030.486     0.500     0.457  88.0
       841   1751.678   2000.829    12.849     0.739 -75.1
       842    535.851   1960.749     0.450     0.366  89.5
       843   1631.629   1978.778     5.033     0.492  41.2
       844   1982.570   2015.808     0.564     0.349 -34.3
       845     88.748   1872.753    65.430     0.547 -42.6
       846    985.841   1483.359     0.664     0.446 -21.0
       847   1347.495   2007.890     4.567     0.731 -66.3
       848   1834.224   2011.529    14.273     0.529 -24.3
       849   1883.592   2027.846     2.110     0.676  56.4
       850     41.013   1983.869     0.363     0.268 -82.3
       851    960.722   2033.157     1.064     0.767  79.0
       852    143.008   1991.238     0.615     0.603 -28.5
       853    129.191   1478.707     0.570     0.544  23.3
       854   1344.891   1986.593     1.076     0.432  27.1
       855   1215.957   1983.402     0.646     0.621 -73.6
