#   1 NUMBER                 Running object number                                     
#   2 X_IMAGE                Object position along x                                    [pixel]
#   3 Y_IMAGE                Object position along y                                    [pixel]
#   4 A_IMAGE                Profile RMS along major axis                               [pixel]
#   5 B_IMAGE                Profile RMS along minor axis                               [pixel]
#   6 THETA_IMAGE            Position angle (CCW/x)                                     [deg]
         1    307.478     51.128     6.317     2.090  63.0
         2   1526.610     19.454    11.071     0.770 -89.3
         3   1342.405     20.722    12.006     1.759  72.6
         4    198.662     18.716     9.083     1.505  43.4
         5    500.317     17.483     3.429     0.688 -59.1
         6     20.236     19.533     2.495     1.827  79.6
         7   1310.261      9.669     4.165     0.973 -60.2
         8    470.630      6.440     2.004     0.477 -73.5
         9   1004.514      7.288     0.688     0.682  87.8
        10    666.453      7.440     0.776     0.730  83.1
        11   1101.785      4.719     0.952     0.904  69.3
        12    547.641      6.163     0.497     0.473  -4.3
        13   1867.078      1.000   172.897     0.289   0.0
        14   1381.406     19.749     1.240     0.329 -59.7
        15   1665.408     10.435     0.532     0.452 -46.5
        16     92.647     15.024     0.612     0.481  32.9
        17   1173.063     26.283     3.155     0.639  22.2
        18    723.175     13.411     0.575     0.486 -14.9
        19    666.095     60.861     6.208     0.786  47.6
        20   1993.505     24.524     0.506     0.493  43.8
        21   1986.729    100.248    28.803     1.081 -13.5
        22   1258.042     54.004     4.056     0.435  48.1
        23   1496.651     56.965     4.702     0.519  33.4
        24    731.612     34.038     0.487     0.327   0.7
        25      4.372     32.591     1.151     0.212 -23.1
        26    641.935     43.473     0.694     0.659  -9.3
        27   1079.967     57.506     2.121     0.552  53.3
        28   1203.256     49.761     0.659     0.651 -52.8
        29    322.690     43.365     0.490     0.453  60.4
        30   1332.265     51.275     0.649     0.464  15.6
        31   1734.745     50.824     0.450     0.365 -24.9
        32   1526.749     58.783     1.405     0.997 -83.7
        33   2032.566     64.020     5.193     0.531  12.5
        34   2019.964    192.597    12.556     8.852 -67.1
        35    569.019     59.788     0.501     0.319 -89.7
        36   1718.459    131.608    10.714     3.837  58.3
        37   1808.176     67.453     0.622     0.613  64.7
        38   1548.936     76.436     0.848     0.821  70.1
        39   1964.068     86.111     3.324     0.492  45.5
        40    270.147    128.836     3.666     0.352  89.4
        41    998.347     77.576     0.501     0.474  75.2
        42    660.003    147.035     7.572     0.610  64.5
        43   1620.617     78.415     0.495     0.484  62.6
        44   1547.618     92.430     2.863     1.186   0.1
        45   1526.220     84.523     1.112     0.258 -72.6
        46    563.802    101.617     2.132     0.712  88.5
        47   1294.868     88.804     0.698     0.668  46.9
        48   1094.828     89.996     0.475     0.334   1.8
        49    294.363     96.011     0.690     0.547  66.9
        50   1712.678     97.027     0.490     0.456 -29.9
        51    235.558    119.792     4.990     0.643  34.2
        52    686.242    103.448     0.501     0.444 -74.0
        53    500.670    113.394     0.561     0.507  75.4
        54    738.577    137.466     4.263     2.618 -38.4
        55    311.326    117.917     0.796     0.747   5.7
        56   1964.081    159.392     8.983     0.547  37.1
        57     18.738    125.139     0.857     0.825  66.4
        58    826.200    129.967     1.428     0.886  18.8
        59   1800.514    123.415     0.802     0.770 -86.0
        60    918.576    146.830     2.552     0.738  84.6
        61    498.252    121.884     0.434     0.320   0.2
        62   1904.676    126.194     0.547     0.536  70.4
        63   1323.777    129.615     0.722     0.712 -30.0
        64    706.877    154.983     3.194     0.506 -73.1
        65    492.823    130.530     0.589     0.563 -38.3
        66    696.968    137.955     0.787     0.720 -60.6
        67    517.288    135.673     0.624     0.559 -81.7
        68   1885.009    140.567     0.520     0.424  86.7
        69   1496.509    141.771     0.553     0.521  45.3
        70   1658.594    178.288     4.593     0.539 -86.4
        71    855.626    146.696     0.626     0.570 -72.7
        72   1180.903    144.539     0.502     0.355  80.9
        73    394.945    148.084     0.668     0.632  -6.2
        74      3.861    157.598     1.564     1.001 -10.5
        75    198.394    165.320     0.884     0.829  76.4
        76    133.368    177.669     2.387     0.917  76.5
        77    532.722    160.094     0.589     0.576  65.1
        78   1876.652    157.391     0.488     0.476 -88.3
        79   1018.689    162.344     0.533     0.507 -28.9
        80    286.981    181.591     1.325     1.232  73.4
        81    371.405    169.028     0.647     0.619  15.8
        82    270.292    197.769     3.779     0.587  87.1
        83   1646.259    228.746    10.401     4.239 -47.1
        84    270.194    215.311     5.907     0.465 -89.7
        85   1128.118    175.308     0.713     0.703 -59.3
        86    758.319    221.785    11.182     1.330  31.1
        87    681.182    198.155     1.827     1.332  77.1
        88   1890.301    185.278     0.481     0.470  58.5
        89    884.988    222.053     6.844     0.555 -32.8
        90   1132.274    196.310     0.840     0.800  78.6
        91   1888.415    188.936     0.496     0.356  -9.8
        92   1259.205    209.713     2.907     1.848  13.2
        93   1276.210    199.264     2.337     0.561  12.9
        94   1782.237    283.050    20.542     0.486 -34.2
        95   1755.814    200.347     0.509     0.440  83.7
        96    739.574    206.923     0.895     0.764 -62.6
        97   1820.091    212.242     0.964     0.684 -86.5
        98    409.578    267.652    10.275     0.636 -43.1
        99    333.628    206.592     0.503     0.471 -52.5
       100   1024.130    250.591     6.338     4.112  -5.1
       101   1203.892    213.523     0.549     0.530 -77.6
       102    450.154    222.472     1.794     0.532 -44.9
       103   1562.677    211.964     0.479     0.370  20.4
       104   1157.560    255.656     7.030     0.894 -51.7
       105   1761.157    210.402     0.789     0.309 -31.7
       106    629.477    217.420     1.234     0.690   8.5
       107    391.253    327.164    13.811     1.640 -74.2
       108   1163.011    765.737    63.059     0.114  90.0
       109   1576.039    220.380     0.641     0.512 -12.0
       110    726.898    219.818     0.386     0.318 -87.0
       111   1535.010    235.328     1.203     0.806  60.2
       112   1391.271    246.051     5.294     0.528 -26.9
       113   1971.080    263.010     6.187     0.505 -40.7
       114    856.600    246.490     2.598     0.781 -53.4
       115    598.207    234.158     0.463     0.446  -8.2
       116    178.681    239.958     0.708     0.660  53.6
       117   1708.545    244.642     1.099     0.844 -55.6
       118    301.779    239.164     0.549     0.385  66.5
       119    803.913    239.277     0.491     0.281 -87.3
       120    933.680    244.632     0.727     0.709  69.4
       121   1445.152    239.354     0.479     0.357 -84.2
       122    216.255    248.111     1.118     0.729   3.9
       123   1085.171    249.168     0.722     0.653  75.4
       124     40.578    244.215     0.500     0.423  16.8
       125    101.495    249.421     0.792     0.647 -43.4
       126   1620.625    316.139    16.083     2.856 -25.4
       127   1332.701    292.227     5.911     0.733 -60.2
       128   1121.188    254.552     0.804     0.776  77.6
       129   1984.105    257.839     0.712     0.671 -68.0
       130   1902.588    263.346     5.328     0.540  -6.5
       131   2024.861    260.493     0.536     0.499   7.1
       132   1426.089    260.670     0.592     0.449 -21.4
       133    557.488    272.074     0.706     0.604 -61.2
       134    441.261    272.397     0.643     0.639 -77.9
       135   1075.526    282.708     1.052     0.677  81.8
       136   1837.821    341.296     6.890     2.858  72.3
       137    843.617    280.096     0.829     0.697  71.1
       138   1086.870    281.829     1.005     0.584 -63.3
       139   1343.161    283.399     1.506     0.415  76.8
       140    570.553    290.861     2.785     0.493  39.3
       141    319.050    279.416     0.493     0.369 -88.8
       142   1512.140    289.826     0.624     0.613 -75.2
       143    516.615    294.922     2.203     0.612  11.4
       144   1701.046    297.883     4.638     0.872  -9.7
       145   1880.503    299.099     1.288     0.729  20.4
       146   1245.793    299.079     0.562     0.357 -63.8
       147   1261.316    300.119     0.465     0.323  -0.4
       148    446.209    335.090     3.546     0.908 -72.7
       149   1954.721    310.589     0.791     0.772 -36.5
       150   1936.035    325.834     2.644     0.688 -28.0
       151   1323.374    318.221     0.484     0.458   1.3
       152   1836.029    359.634     5.451     0.958 -66.3
       153   1552.900    505.287    24.924     2.755  59.8
       154   1155.756    331.449     0.722     0.693 -73.6
       155    353.822    332.572     0.843     0.750  29.1
       156   1416.655    379.835     7.477     2.238  80.9
       157   1014.908    351.437     3.770     1.589 -29.2
       158    730.215    349.249     1.515     1.076  60.6
       159    713.303    424.873    14.895     0.821 -53.9
       160   1784.597    342.460     0.572     0.439  46.3
       161     18.317    354.382     2.742     0.445  35.7
       162    568.754    352.665     1.785     0.741  36.2
       163   1366.035    348.997     0.534     0.436 -43.5
       164   1087.436    354.034     0.603     0.549 -67.5
       165    377.092    353.199     0.571     0.528  44.4
       166   1094.890    352.053     0.407     0.400 -63.3
       167   1266.253    349.631     0.483     0.435 -89.8
       168      7.675    516.562    16.041     0.925  90.0
       169   1142.604    439.892     9.937     0.496 -76.0
       170   1582.480    362.392     0.621     0.611 -69.2
       171      4.672    362.827     0.535     0.517 -36.4
       172    964.700    391.299     1.992     1.119 -22.7
       173    492.386    390.204     4.609     0.590  31.9
       174   1016.552    383.915     0.726     0.709  71.2
       175    164.038    381.415     0.876     0.494   4.9
       176   1788.251    430.313     5.364     1.614 -88.0
       177   1961.039    409.895     3.537     0.590  53.9
       178   2004.325    385.423     0.563     0.522 -83.3
       179   1529.818    387.273     0.472     0.424  85.5
       180    786.392    390.767     0.775     0.531 -60.9
       181   1878.920    448.755     9.681     0.950  45.4
       182   1749.309    445.519    11.060     3.351  39.5
       183    664.841    408.089    17.056     0.640   6.0
       184    685.999    396.656     1.203     0.765   2.0
       185    500.914    408.939     2.264     0.631  27.2
       186    624.151    408.012     0.861     0.806  74.5
       187   1448.689    404.731     0.537     0.486 -30.7
       188   1307.073    459.929     8.322     1.026 -38.2
       189   1560.074    430.359     2.618     0.925  88.3
       190    548.343    416.322     1.313     0.553 -76.3
       191   1252.762    415.759     0.775     0.647 -33.3
       192   1770.011    419.965     1.193     0.481  49.1
       193    950.070    413.861     0.377     0.254 -86.6
       194   1329.948    421.371     0.632     0.490  12.7
       195     31.739    424.505     0.520     0.495 -78.2
       196    794.590    427.081     0.849     0.498 -59.9
       197   1851.227    444.990     2.653     1.975  44.4
       198    830.990    425.992     0.607     0.348  74.3
       199   1383.969    465.264     4.072     3.380  84.9
       200     68.660    435.391     0.839     0.789  85.2
       201    511.723    429.957     0.488     0.449   0.1
       202   1501.872    430.872     0.641     0.613   0.3
       203    531.165    432.286     0.540     0.518  60.3
       204   1601.669    470.682     3.632     0.817 -89.2
       205    392.098    463.120     3.611     0.747  43.6
       206    454.718    464.108     0.988     0.807  62.3
       207    963.567    460.879     0.556     0.550  81.2
       208    863.406    467.237     0.692     0.658 -65.6
       209    934.128    462.464     0.499     0.334 -89.4
       210   1421.120    467.020     0.614     0.601 -29.1
       211   1426.441    515.055    10.513     0.826 -28.6
       212   1943.287    476.432     0.598     0.551  60.9
       213    481.905    482.180     1.791     0.854  13.7
       214   1124.921    481.704     0.517     0.251 -77.3
       215   1814.727    495.040     1.832     0.502  58.2
       216    756.229    545.087     7.053     1.319  66.0
       217   1121.128    493.740     0.605     0.501 -62.2
       218    619.518    499.015     0.668     0.657  87.0
       219    890.186    513.373     2.360     0.876  46.3
       220    624.467    501.030     0.889     0.533 -45.5
       221   1117.295    508.479     0.916     0.742 -80.9
       222    762.895    506.058     0.348     0.320   1.7
       223   1238.890    513.526     0.782     0.766 -43.1
       224    823.598    539.480     3.512     0.659  57.5
       225    954.503    517.929     0.821     0.657 -33.5
       226    933.100    517.065     0.661     0.658 -36.2
       227    346.063    522.571     1.260     0.352  34.1
       228   1880.720    589.072     9.265     1.639  38.6
       229   1346.047    533.203     0.869     0.851 -65.3
       230   1977.498    546.344     2.442     0.902 -59.0
       231   1752.833    535.505     3.470     0.561   0.9
       232    801.086    620.515    10.430     4.053 -65.3
       233   1012.408    541.595     0.740     0.702 -61.5
       234   2003.093    554.526     3.058     0.490 -43.3
       235   1288.003    546.978     6.233     0.500  -6.5
       236   1549.909    554.731     2.022     0.707 -36.1
       237   1997.124    546.804     3.653     0.481  -7.6
       238   1659.941    552.532     1.741     0.521  57.3
       239   2010.627    543.325     0.503     0.448  36.9
       240   1272.005    573.919     3.910     0.731  56.6
       241   1514.672    555.340     0.668     0.629  49.2
       242    989.793    633.800    11.092     1.507  66.8
       243    846.240    556.406     0.798     0.777 -22.9
       244    649.114    636.998    19.205     0.895  29.6
       245    610.726    588.718     5.084     0.794 -85.2
       246    692.605    576.067     2.938     2.521 -32.6
       247    544.965    570.850     5.020     0.499 -18.7
       248    519.497    641.964    10.442     3.020  60.5
       249    409.244    563.908     0.439     0.369  -1.1
       250   1292.591    565.764     0.492     0.433   0.1
       251   1294.808    570.708     0.563     0.558 -70.7
       252   1061.269    577.327    21.615     0.524   0.4
       253   1213.011    579.087     0.654     0.627  64.4
       254    313.952    578.017     0.556     0.537  87.8
       255    587.518    589.391     5.702     0.512  11.5
       256   1000.782    585.768     0.614     0.614 -87.8
       257   1974.039    641.223     8.575     0.876 -58.0
       258    844.414    584.211     0.544     0.525  78.9
       259    447.156    611.673     5.586     0.821 -30.7
       260    824.820    608.137     2.457     0.512  49.9
       261    562.382    628.171     4.416     0.951  86.7
       262    546.713    604.589     0.494     0.470 -72.5
       263   2005.359    605.783     1.147     0.405   4.0
       264    882.414    612.915     0.645     0.632 -66.0
       265   1338.612    618.228     1.223     0.745  36.0
       266   1199.264    610.965     0.576     0.569 -86.9
       267    200.915    678.931    15.991     0.534 -25.8
       268   1950.737    624.132     0.894     0.732  -4.8
       269    928.240    634.890     3.282     0.892 -22.1
       270   1076.304    629.294     0.755     0.737  87.9
       271   1538.629    626.417     0.559     0.545  47.0
       272    308.227    624.330     0.585     0.577 -38.1
       273    617.723    632.977     0.877     0.855  81.0
       274    973.003    665.694     4.843     2.674 -83.8
       275    934.084    641.217     0.754     0.544 -50.1
       276   1989.939    638.315     0.676     0.292  84.0
       277    789.408    639.734     0.702     0.627  70.1
       278    230.878    642.607     0.868     0.735 -75.7
       279    578.898    672.988     3.832     2.280 -83.3
       280    603.526    644.327     0.695     0.680  34.7
       281   1931.851    685.196     6.660     0.628 -42.2
       282   1551.634    652.019     1.606     0.592  24.7
       283    481.478    649.296     0.755     0.735  38.6
       284    296.000    653.152     1.559     0.289  90.0
       285     98.913    648.430     0.639     0.627  85.2
       286   1801.037    665.086     2.179     0.892  78.1
       287    873.313    653.538     0.709     0.680  42.4
       288    450.661    646.651     0.480     0.470 -53.7
       289   1473.130    657.708     0.783     0.765  34.5
       290   1075.314    653.242     0.469     0.436 -23.5
       291     89.083    659.020     0.884     0.758 -47.8
       292   1369.862    662.904     0.755     0.738 -76.5
       293   1093.069    661.030     0.405     0.392 -11.2
       294   1909.749    659.912     0.542     0.533 -29.2
       295   2017.325    683.780     1.545     0.678 -45.3
       296   1374.956    682.624     7.972     0.513   2.0
       297     57.905    680.353     0.823     0.581 -30.2
       298    323.892    683.978     0.737     0.692  68.7
       299   1605.888    686.928     0.692     0.613 -46.9
       300   1118.976    690.074     1.656     0.706   6.8
       301    816.347    745.440     7.455     0.758  68.4
       302    145.632    693.489     0.765     0.743 -75.6
       303    927.204    717.277     3.330     0.581  80.5
       304    247.593    695.876     0.681     0.654 -36.7
       305    819.233    716.282     2.839     0.572 -87.3
       306   1242.886    698.598     0.623     0.610  23.6
       307   1244.984    706.261     0.691     0.680 -48.2
       308   1365.963    710.530     2.811     0.528  20.3
       309    957.551    730.963     4.782     0.773  42.5
       310   1772.713    708.512     0.652     0.447 -28.1
       311   1106.275    791.780     9.236     0.523 -58.6
       312    720.683    723.987     0.764     0.367  58.1
       313   1258.591    732.715     0.847     0.793 -54.2
       314    685.488    752.270     4.286     1.807 -29.0
       315   1660.177    734.342     0.474     0.381  88.7
       316   1758.828    845.710    11.785     1.076  86.7
       317   1698.981    797.908     6.456     0.486  76.7
       318   1602.435    746.971     0.496     0.234   1.6
       319    708.579    748.000     0.511     0.365  21.5
       320   1054.192    757.354     0.862     0.839   4.5
       321    723.995    782.241     3.330     2.867 -26.9
       322   1784.902    760.997     1.126     0.750  41.9
       323   1749.120    756.943     0.434     0.380   1.4
       324    841.771    773.503     1.222     0.851  56.4
       325    573.865    766.309     0.714     0.680  61.1
       326   1379.594    782.047     0.492     0.454  10.1
       327    478.802    788.375     0.784     0.751 -72.1
       328   1218.952    786.192     0.435     0.343  88.4
       329    466.211    786.377     0.515     0.486 -45.0
       330    368.877    799.727     1.273     0.863 -31.4
       331   1227.463    826.920     5.093     0.527  53.3
       332   1558.844    801.272     0.688     0.410  32.2
       333    254.861    801.078     0.602     0.552 -71.0
       334   1667.622    802.274     0.658     0.625  -1.5
       335   1220.886    876.028     9.448     0.577  63.3
       336   1200.893    803.494     0.527     0.472  76.4
       337    679.852    808.615     2.969     0.479   7.9
       338     17.107    810.453     0.814     0.720 -54.9
       339   1139.793    885.956     9.845     2.091  81.9
       340    693.017    823.940     1.200     0.892 -34.7
       341    913.479    819.019     0.709     0.616  71.7
       342    633.855    819.583     1.418     0.532   7.6
       343    838.807    847.659     3.514     1.706  39.6
       344   1884.485    824.904     0.925     0.323  24.5
       345   1230.190    850.323     3.458     0.621  48.4
       346   1493.290    839.026     1.886     0.662  37.7
       347   1690.442    828.670     0.497     0.470  -2.6
       348     23.682    833.044     0.519     0.486   6.2
       349   1355.605    841.359     0.834     0.806 -85.5
       350   2030.507    856.820     4.430     1.331  10.5
       351    670.044    842.924     0.454     0.354  87.6
       352    932.343    901.087     6.716     1.318 -64.6
       353    954.348    848.505     0.673     0.602 -45.7
       354    483.397    924.826    10.063     1.159 -46.1
       355    103.627   1119.051    33.563     7.380 -69.7
       356   1469.562    867.138     0.529     0.499 -10.1
       357   1555.635    894.195     2.735     0.710 -85.2
       358    677.862    877.163     0.720     0.442 -75.9
       359    621.771    888.437     1.990     1.231 -25.6
       360   2013.311    880.447     0.751     0.733  57.1
       361   1996.001    882.711     0.559     0.525 -70.5
       362     16.941    882.632     0.667     0.652  64.7
       363    500.921    887.938     0.789     0.782 -59.6
       364    639.186    883.265     0.509     0.319  50.2
       365   1011.097    894.219     0.489     0.470  75.1
       366   1411.725    899.014     1.991     0.497  23.1
       367    759.430    916.762     3.628     1.184  64.5
       368   1611.499    921.738     4.845     0.501 -49.3
       369   1861.939    902.593     0.658     0.642 -81.5
       370    547.420    906.627     1.917     0.592  50.1
       371    993.624    903.490     0.513     0.508 -80.2
       372    646.265    908.909     0.734     0.586  34.5
       373   1474.071    906.672     0.647     0.615 -89.5
       374   1827.917    927.000     3.143     0.775 -50.4
       375      8.316    925.863     3.002     0.784  55.9
       376   1541.427    919.022     0.976     0.815 -56.0
       377   1019.872    914.137     0.471     0.325  21.2
       378    504.084    942.481     5.014     0.509 -31.9
       379     40.784    940.034     2.302     0.659 -86.4
       380    625.368    958.041     5.001     0.537 -58.6
       381   1237.241    931.104     1.000     0.752  59.6
       382    215.518    928.523     0.502     0.497  43.8
       383   1161.193    936.165     0.733     0.718   3.7
       384     70.591    936.460     0.533     0.518 -13.0
       385    416.333    964.300     4.134     0.632  68.8
       386    819.182    938.610     0.741     0.435  27.0
       387   1107.147    943.454     0.770     0.663  64.8
       388   1359.974    939.776     0.515     0.348 -89.3
       389   1366.985    941.026     0.449     0.423 -54.9
       390     67.755    940.948     0.627     0.550 -64.3
       391   1359.948    946.371     0.839     0.731  63.1
       392    521.384    947.879     0.773     0.698 -19.6
       393    829.493    947.424     0.534     0.458  42.8
       394     36.634    953.839     0.539     0.463   2.8
       395     49.206   1061.227    15.777     2.558 -54.5
       396   1027.916    962.666     2.844     0.622  41.2
       397    143.999   1036.735    14.202     0.552  44.9
       398   1594.290    981.753     9.339     3.614 -14.7
       399     68.310    983.892    15.797     2.154  10.1
       400    745.816    959.329    10.608     0.495  -4.7
       401    663.388    956.594     0.615     0.492 -21.1
       402    839.168    960.207     0.657     0.621  52.5
       403   1050.133    958.341     0.474     0.339 -87.3
       404    142.739   1057.041    12.930     1.486  71.3
       405    802.157    966.825     0.427     0.364  87.8
       406    679.113    976.472     5.280     0.547   2.8
       407    686.753    980.709     0.780     0.752 -70.3
       408    142.407    986.571     0.959     0.775 -23.6
       409   1193.387    986.679     0.738     0.646  78.3
       410    631.814    988.958     3.566     0.652  -0.7
       411    319.101    998.062     2.690     0.769 -30.7
       412   1470.251    992.888    15.219     0.525   1.9
       413   1248.399    995.129     0.702     0.680  39.6
       414    867.499    997.265     0.760     0.711  37.3
       415   1670.623   1006.623     0.834     0.705 -22.8
       416     85.336   1004.914     0.868     0.289  62.8
       417    849.493   1081.449    10.658     0.599 -42.1
       418   1416.968   1004.676     0.550     0.338  89.3
       419     64.180   1006.071     0.385     0.257  -1.4
       420    791.195   1019.713     1.364     0.379  39.9
       421    257.901   1041.699     2.926     0.994  44.7
       422   1217.459   1035.017     3.190     1.447  12.9
       423   1197.220   1028.643     0.743     0.709 -88.1
       424   1222.472   1085.370     6.339     0.894  74.0
       425   1100.246   1050.686     5.790     0.616  33.8
       426   1251.587   1032.675     0.712     0.643 -88.4
       427   1983.241   1059.804     4.897     1.234  51.4
       428    812.789   1058.673     3.904     0.766 -64.2
       429    579.054   1052.120     1.286     0.489  23.2
       430    297.783   1067.592     2.746     0.831 -58.8
       431   1228.029   1046.962     0.349     0.331 -68.8
       432    125.913   1057.599     0.733     0.658 -68.3
       433    131.434   1056.578     0.752     0.722 -69.4
       434   1211.377   1068.760     0.765     0.604  76.3
       435    678.678   1099.533     5.781     1.068 -41.8
       436    298.154   1084.011     1.073     1.002  89.3
       437   2003.343   1084.854     2.161     0.735 -63.1
       438   1715.365   1073.931     0.501     0.494 -86.0
       439   1413.170   1079.118     1.355     0.690 -38.6
       440   1341.498   1071.427     0.505     0.490  34.7
       441    760.413   1095.247     3.601     1.246  47.1
       442   1639.455   1084.768     0.686     0.675  18.3
       443    653.186   1082.845     0.936     0.621  45.6
       444    235.435   1086.549     0.695     0.664   3.1
       445    965.919   1088.088     0.612     0.559  11.7
       446   1820.042   1113.471     4.078     0.774 -36.9
       447   1987.253   1112.171     3.736     1.742   4.8
       448   1876.004   1118.917    10.786     2.115   1.3
       449    840.549   1109.458     0.829     0.771 -57.6
       450    213.064   1098.514     0.672     0.494  -9.2
       451   2023.961   1117.420     9.793     0.556 -10.6
       452   1989.984   1102.657     0.499     0.415  88.1
       453   1539.040   1116.787     1.872     0.810  22.5
       454   1240.905   1114.564     0.800     0.746 -10.8
       455   1276.151   1112.244     0.503     0.473  89.2
       456    262.355   1117.609     0.726     0.721  66.0
       457   1234.021   1126.365     0.683     0.646 -86.7
       458    708.180   1145.441     4.457     1.439 -18.6
       459    316.411   1141.664     1.342     0.876 -89.2
       460   1639.310   1128.580     0.549     0.505  32.0
       461    962.868   1134.443     0.505     0.348 -79.0
       462    695.831   1132.386     0.487     0.386 -89.6
       463    658.346   1146.402     2.997     1.291  11.1
       464    250.470   1141.396     0.562     0.531  47.7
       465    363.551   1209.993    12.257     2.348 -45.8
       466    559.009   1153.089     0.930     0.855 -67.1
       467   1886.353   1154.118     0.681     0.618  74.3
       468    332.042   1168.789     0.795     0.772  50.0
       469   1872.305   1162.124     0.655     0.574 -29.0
       470    891.887   1194.717     4.239     0.540 -60.4
       471    878.729   1236.924     8.671     0.792 -78.5
       472    543.579   1169.512     0.601     0.584  57.2
       473    104.681   1172.777     0.701     0.665  49.7
       474   1720.876   1180.474     0.619     0.501 -32.5
       475     74.617   1184.369     0.952     0.839 -21.7
       476    850.024   1203.987     7.411     1.049 -30.3
       477   1583.918   1184.793     0.798     0.594 -44.9
       478   1655.283   1181.853     0.450     0.434  -2.5
       479   1749.269   1189.591     1.037     0.796 -49.1
       480    127.117   1992.032     0.322     0.260  -6.0
       481   1512.654   1025.151   665.075   120.270  88.5
       482    268.439    208.587   222.258    11.104  89.6
       483    194.016   1992.499     9.169     0.956  90.0
       484    819.968   1830.872     5.763     1.747  14.1
       485    869.671   1788.412    11.692     0.504 -63.7
       486      2.369   1815.785     0.743     0.710 -80.4
       487    610.699   1827.135     0.622     0.610 -79.4
       488   1347.369   1819.932     0.712     0.694  22.2
       489    525.908   1823.934    10.169     1.109 -41.1
       490     94.678   1817.094     1.195     0.770 -16.0
       491   1597.118   1817.107     0.324     0.320 -40.9
       492   1573.037   1787.969    18.965     0.506  70.5
       493   1300.556   1731.066     0.515     0.496 -82.0
       494    664.431   1810.376     5.137     0.741 -52.4
       495   1512.755   1757.394     0.722     0.666  43.6
       496    151.117   1780.672     0.694     0.640  73.3
       497    205.993   1801.871     5.363     1.052 -89.7
       498    989.926   1800.506     0.526     0.493 -85.6
       499   1128.392   1794.469     3.631     1.943  79.8
       500   1187.288   1798.864     0.593     0.578  79.6
       501    704.232   1752.249     1.202     0.624 -40.4
       502    425.620   1784.403     0.878     0.567 -66.1
       503    978.771   1778.055     4.824     1.472  78.5
       504    190.728   1780.078     0.455     0.387  23.7
       505   1175.673   1784.249     0.632     0.251 -46.9
       506   1252.333   1767.454     4.884     0.747 -25.5
       507    447.942   1772.775     0.675     0.658  58.1
       508    359.963   1764.766     2.742     1.194   5.8
       509    382.438   1751.171     3.258     0.500  47.5
       510   1863.888   1767.485     0.631     0.559  48.5
       511   1320.503   1734.332     8.609     0.804 -37.6
       512   1476.853   1690.819     3.004     0.512 -12.2
       513   1143.245   1737.956    17.119     1.384 -74.5
       514   1606.110   1755.586     0.741     0.687 -10.0
       515    779.884   1715.191     3.799     0.587  55.2
       516   1223.362   1747.658     0.497     0.491  24.7
       517   1682.944   1671.554     0.583     0.365 -81.7
       518   1273.089   1676.596     0.821     0.713 -84.0
       519    591.506   1682.772     1.656     0.500 -34.0
       520    490.587   1678.576     0.786     0.778 -54.7
       521    354.570   1710.965     1.041     0.820 -37.7
       522    385.172   1706.818     0.592     0.576 -56.2
       523    336.239   1713.415     0.714     0.601 -83.2
       524   1924.337   1706.732     0.846     0.810  41.1
       525   1646.922   1673.869     5.040     0.491  68.4
       526    824.275   1690.383     1.349     0.790  30.0
       527   2039.739   1651.440     0.908     0.441  86.1
       528   1694.540   1692.785     0.589     0.482 -67.7
       529    917.879   1616.119     5.457     1.021 -55.5
       530   1379.022   1694.280     0.555     0.319  82.8
       531   1247.141   1685.511     0.500     0.358 -89.3
       532    124.859   1683.445     1.298     0.696  74.1
       533   1065.673   1689.453     0.620     0.599 -57.8
       534    725.789   1676.292     7.838     0.590  36.0
       535     27.369   1594.667    14.998     0.696  19.0
       536    645.068   1604.454     2.695     0.465 -10.2
       537    543.517   1650.389     1.579     0.411  47.0
       538   1613.183   1669.920     0.387     0.271   0.2
       539    604.064   1670.252     0.504     0.460 -88.0
       540   1936.094   1665.590     1.417     0.858  61.5
       541    939.004   1607.390    53.783     1.839 -54.9
       542    954.391   1660.226     0.871     0.850 -71.4
       543    769.771   1654.147     0.811     0.664 -54.3
       544   2008.701   1599.392     2.268     0.965  41.3
       545     74.323   1656.475     1.091     0.678  86.7
       546     40.237   1574.748     0.460     0.398 -49.2
       547   1517.059   1591.493     0.992     0.616  62.2
       548    153.817   1567.753     0.694     0.667  64.5
       549   1925.874   1593.712     0.594     0.577 -76.9
       550   1044.022   1654.509     0.874     0.724  69.1
       551    136.418   1649.828     4.332     0.871 -49.2
       552   1361.570   1487.907     0.503     0.468 -17.8
       553    460.517   1596.303     1.228     0.689  28.6
       554   1969.533   1583.278    11.894     1.954 -87.4
       555    416.057   1649.088     0.755     0.706 -36.0
       556   1411.611   1643.606     4.317     1.904  11.7
       557    278.262   1596.267     4.224     1.304 -81.0
       558    597.343   1604.632     0.489     0.467  55.0
       559   1786.710   1632.845     1.729     0.700 -73.8
       560   1434.347   1637.038     0.709     0.698 -28.3
       561   1257.348   1608.917     1.058     0.734  -1.2
       562   1440.628   1499.462     0.602     0.589   3.4
       563    757.192   1632.664     0.668     0.655 -74.7
       564     33.222   1632.398     0.637     0.611 -84.5
       565   1210.635   1620.330    11.454     0.593  36.6
       566    413.818   1607.785     0.431     0.402  88.5
       567   1395.822   1603.531     7.126     0.499 -20.5
       568    632.849   1596.097     0.557     0.527 -72.0
       569   1606.403   1621.757     0.492     0.427  10.4
       570    585.455   1607.589     0.767     0.744 -69.2
       571   1027.945   1600.507     2.325     0.721  60.6
       572   1294.290   1612.983     2.187     0.588 -73.7
       573   1746.083   1617.858     1.169     0.942 -14.5
       574    972.140   1532.411     0.712     0.567 -11.6
       575   1367.778   1565.197     1.169     0.917  14.6
       576    460.134   1588.092     1.446     0.758 -40.0
       577   1994.649   1594.960     0.537     0.524 -48.2
       578   1801.841   1593.183     1.733     0.707 -19.2
       579    717.621   1585.016     3.298     0.589 -24.4
       580   1116.908   1486.234     0.486     0.437 -88.0
       581    975.466   1579.169     1.625     0.742 -33.3
       582    417.483   1556.352     4.212     1.919  56.2
       583   1680.203   1587.119     4.382     1.486  25.5
       584    777.686   1564.617    10.685     1.241  13.9
       585   1453.587   1574.537     5.520     1.448 -40.8
       586    878.526   1577.839     0.639     0.618 -41.6
       587   1007.977   1570.697     0.796     0.654  67.1
       588   1224.114   1503.654     0.508     0.461 -33.9
       589    876.960   1493.393     0.552     0.541  68.8
       590    679.565   1321.640     7.360     2.367  76.5
       591    826.029   1557.393     0.489     0.299 -86.3
       592   1599.511   1557.722     0.995     0.553 -63.8
       593   1553.647   1564.153     0.954     0.367 -69.6
       594    777.027   1555.748     1.351     0.684 -70.8
       595    666.432   1344.742     3.426     2.021 -32.4
       596   1141.073   1540.327     0.753     0.730 -28.3
       597    873.760   1547.993     7.042     1.039   6.5
       598    473.854   1551.743     0.449     0.371  77.7
       599   1765.692   1493.050     0.509     0.412 -29.0
       600   1387.727   1548.848     0.507     0.500 -14.7
       601   1056.684   1519.139     9.805     0.646 -13.3
       602    235.320   1541.042     0.769     0.701  58.5
       603   1660.208   1500.184     0.868     0.831  -8.4
       604   1810.934   1501.154     0.496     0.436 -14.2
       605     80.811   1472.849     0.766     0.653 -52.2
       606   1817.756   1520.700     3.054     0.894   6.8
       607   1745.649   1499.765     4.071     1.339  64.8
       608   1934.718   1511.839     0.453     0.363  11.9
       609   1700.480   1512.256     2.046     0.656  -7.4
       610    103.249   1515.919     0.843     0.766 -11.8
       611   1347.504   1516.122     0.502     0.474  15.6
       612    939.150   1500.354     4.703     1.782 -55.7
       613   1871.608   1507.985     4.366     0.861  11.9
       614      3.106   1495.388     0.488     0.308 -87.3
       615    688.988   1502.420     0.673     0.607 -74.6
       616   1455.842   1487.159     0.515     0.470 -51.9
       617    541.403   1481.605     4.966     0.944 -81.4
       618     57.869   1484.689     0.881     0.781  22.6
       619   1359.535   1444.218     1.056     0.727 -71.9
       620   1810.444   1418.868     8.651     1.343 -51.4
       621   1333.495   1416.573     8.272     0.510  -5.0
       622   1195.911   1474.453     1.945     0.659   2.5
       623   1154.331   1444.866     1.039     0.578 -78.3
       624    343.335   1470.290     3.771     0.614  49.8
       625   1669.513   1460.356     1.959     0.643  80.4
       626   1179.660   1469.620     4.308     1.124  28.7
       627   1323.952   1399.620     1.173     0.487 -68.1
       628     11.798   1469.296     8.302     0.434  20.9
       629    700.431   1366.446     4.098     1.045 -55.6
       630   1547.227   1362.320     3.157     0.956 -37.9
       631   1083.442   1433.730     2.083     1.185  63.1
       632    561.621   1350.805    16.081     0.846  -6.1
       633   1027.102   1394.515     0.924     0.620  82.8
       634   1273.352   1418.658     1.823     0.994   4.6
       635    277.829   1419.422     7.275     1.166 -69.9
       636    101.958   1290.098     8.058     2.461 -40.0
       637    512.222   1426.744     0.459     0.415 -82.1
       638    298.807   1426.129     1.034     0.833 -88.7
       639   1916.022   1433.756     3.894     1.722 -20.3
       640    726.612   1437.284     1.311     0.687  -1.1
       641   1752.557   1430.691     2.898     0.293  79.1
       642   1187.033   1346.323     4.687     0.846   3.7
       643   1871.712   1428.633     8.769     0.462 -15.8
       644    616.972   1419.830     0.726     0.716  48.6
       645    881.389   1404.234     6.213     0.714  12.4
       646   1489.285   1397.194     0.615     0.599  -9.7
       647    467.399   1341.468     0.501     0.488  67.4
       648    936.042   1396.730     5.057     0.837 -76.8
       649   1604.018   1409.721     0.541     0.534  42.4
       650   1594.188   1411.712     0.768     0.740 -24.7
       651   1080.802   1406.118     0.743     0.695  42.5
       652   1621.930   1345.258     0.487     0.337 -89.5
       653    583.380   1301.852     0.706     0.699 -41.1
       654   1882.291   1377.676     5.852     2.289  48.7
       655   1373.938   1383.823     0.754     0.471  86.6
       656   1986.476   1373.510     0.604     0.565 -69.3
       657   1510.346   1398.747     0.671     0.666  73.7
       658    437.829   1394.301     3.265     0.483 -22.9
       659    780.287   1387.494     1.128     0.518  -3.8
       660    763.993   1377.910     0.602     0.523 -38.2
       661   1064.639   1330.766     0.985     0.868  61.2
       662     96.937   1372.491     0.500     0.243 -88.6
       663    871.472   1374.456     0.639     0.626  40.3
       664    784.500   1350.307    15.281     1.840 -12.4
       665   1958.756   1360.512     6.237     0.714   5.1
       666   1672.457   1340.093     6.436     1.710  50.3
       667    366.740   1352.817     0.623     0.565  88.7
       668    165.515   1360.517    14.451     0.522  -6.8
       669    730.674   1338.957     9.962     4.010 -11.9
       670   1929.372   1351.898     2.691     0.513  -7.0
       671     83.439   1343.601     7.430     0.697 -61.9
       672   1226.947   1349.027     1.723     0.839   6.3
       673    173.050   1280.804     0.875     0.824  58.8
       674   1579.006   1933.879     1.387     0.080 -89.8
       675    646.883   1352.549     1.083     0.515 -34.0
       676    700.404   1305.588     2.033     0.684  44.4
       677    685.311   1336.280     0.846     0.600 -90.0
       678    224.253   1257.306     0.795     0.717  67.6
       679   1644.991   1336.317     0.586     0.561  50.2
       680   1591.927   1321.970     2.719     0.538 -31.9
       681     72.774   1328.970     0.509     0.339  -0.0
       682   1422.468   1299.056     7.765     2.774 -13.0
       683   1806.653   1206.645     1.640     0.660 -13.5
       684   1226.179   1257.925     0.535     0.488 -40.9
       685   1034.145   1305.119     0.616     0.597 -89.9
       686   1455.570   1295.348     3.216     1.431 -89.0
       687    431.982   1308.169     0.579     0.549 -53.0
       688    951.629   1306.556     0.681     0.633  89.1
       689    128.191   1297.607     3.150     0.562  -8.3
       690   1681.503   1290.900     1.266     0.620 -43.1
       691    488.384   1296.642     1.257     0.607 -54.1
       692    888.175   1905.947     0.764     0.753 -57.3
       693   1353.303   1288.207     0.552     0.520 -82.1
       694   1222.436   1282.375     3.480     0.899  -9.9
       695    989.102   1934.549     6.365     0.517   2.4
       696   2016.293   1214.902     3.667     1.154  31.6
       697    922.780   1290.524     0.701     0.388  74.0
       698   1046.318   1278.689     0.563     0.550  18.5
       699    181.282   1281.554     0.635     0.598  47.5
       700   1145.664   1238.629     0.549     0.470  79.9
       701    585.498   1268.817     0.845     0.788  77.2
       702   1433.884   1224.179     0.729     0.699 -75.8
       703    366.772   1902.950     0.829     0.803  44.8
       704    256.853   1905.189     1.625     0.649  27.2
       705   1871.446   1266.167     0.659     0.653 -71.8
       706    663.863   1833.040     0.489     0.485   3.9
       707    590.701   1917.674     0.505     0.457 -82.7
       708    947.575   1936.667     0.668     0.585  87.5
       709   1139.052   1238.656     0.477     0.410  79.4
       710   1018.500   1863.684     0.799     0.790  89.8
       711    729.870   1746.142     0.658     0.521  77.7
       712   2037.201   1873.802     2.288     0.344   5.5
       713    509.713   1248.262     0.456     0.435  26.6
       714    130.443   1254.246     0.608     0.333 -40.9
       715   1157.199   1938.164     6.816     0.462  76.8
       716    451.184   1838.827     6.827     0.648 -57.2
       717    738.522   1951.441     0.749     0.715 -68.6
       718    443.245   1950.369     0.633     0.594  65.7
       719     57.726   1944.339     4.524     0.799 -58.4
       720   1491.060   1251.451     0.498     0.238 -89.6
       721   1059.639   1235.748     0.538     0.516  -2.7
       722   1977.057   1237.853     2.885     0.556 -68.6
       723    528.007   1886.126     0.365     0.315  88.6
       724   1873.299   1778.697     1.160     0.680  49.6
       725    405.647   1837.748     2.187     0.781  44.5
       726   1686.276   1863.250     1.281     0.899   8.5
       727    712.129   1227.447     3.867     1.181 -56.6
       728   1657.521   1233.818     0.729     0.654 -47.5
       729   1405.575   1893.669     0.716     0.633  57.0
       730    909.605   1458.674     0.555     0.509  33.3
       731   1678.776   1215.903     0.476     0.460  21.1
       732   1862.096   1202.362     0.702     0.598 -81.0
       733   1228.668   1770.326     0.719     0.709 -15.8
       734   1164.927   1958.718     2.688     0.791 -70.4
       735   1730.285   1765.824     4.397     1.814 -15.1
       736    887.702   1213.001     0.642     0.620  14.1
       737    926.501   1206.418     3.565     0.507  49.8
       738    734.903   1848.065     0.656     0.651  40.4
       739   1598.270   1194.087     0.483     0.467  12.5
       740   1891.090   1208.182     0.703     0.370  89.2
       741   2010.373   1199.253     2.959     0.802 -31.5
       742   1495.533   1195.849     1.347     0.815  41.5
       743   1613.557   1189.856     0.684     0.612  62.6
       744   1012.771   1892.871     0.424     0.331  12.3
       745   1443.994   1193.057     0.465     0.445  84.6
       746    145.831   1739.399     0.527     0.501 -40.9
       747   1985.298   1869.986     0.656     0.627  64.7
       748   1724.103   1739.990     0.759     0.714  30.9
       749    175.581   1909.264     0.496     0.438 -11.9
       750    498.263   1738.878     1.006     0.618  52.1
       751   1177.567   1876.279     0.712     0.563 -66.1
       752    865.347   1756.510     4.123     1.376   4.1
       753    890.585   1297.783     6.426     0.539 -14.7
       754    520.230   1868.535     0.584     0.547  64.6
       755    354.761   1860.541     4.051     0.583 -85.9
       756    373.152   1867.048     0.846     0.507  52.4
       757    203.077   1573.122     3.980     0.599  49.3
       758   1183.728   1863.227    23.422    15.887 -22.0
       759   1451.820   1972.877     0.471     0.469 -53.1
       760   1576.123   1896.848     3.580     0.535 -16.1
       761    240.779   1469.722     0.957     0.676  37.9
       762    156.638   1576.999     1.065     0.921 -26.0
       763    862.587   1290.619     2.581     1.924  66.8
       764   2033.664   1811.868     0.769     0.708  51.4
       765    755.878   1912.901     0.712     0.698 -11.8
       766    974.744   1903.081     0.997     0.527 -54.8
       767   1898.726   1973.112     0.838     0.698  66.1
       768   1677.999   1455.322     0.567     0.553  58.4
       769    577.699   1291.900     1.620     0.800  12.2
       770   1552.075   1902.576     3.043     0.594 -40.8
       771   1583.552   1873.001     5.498     1.130  70.9
       772    397.400   1287.687     7.338     0.850 -28.2
       773    344.716   1737.379     0.640     0.589 -78.5
       774    738.343   1295.543     0.593     0.569 -67.8
       775   1562.672   1819.761     1.478     0.788 -36.9
       776    573.293   1851.173     3.918     0.513  55.5
       777    876.551   1903.454     0.989     0.647  81.2
       778   1609.635   2036.140     0.949     0.702  83.7
       779   1271.967   1918.632     3.299     1.685  74.9
       780    622.865   2036.826     0.379     0.341  86.8
       781    320.765   1912.726     0.673     0.645 -82.5
       782   1232.589   1892.226     5.782     0.739 -34.9
       783    580.687   1564.916     3.514     0.771 -24.3
       784    714.161   2017.841     2.538     0.796 -45.1
       785    199.502   1450.072     6.632     0.789 -16.2
       786    248.292   1455.367     4.421     0.706 -30.8
       787    689.904   1292.456     0.526     0.509  76.3
       788   2005.872   1451.205     0.805     0.785  67.6
       789   1702.689   1478.761     2.510     0.593  70.5
       790    892.929   1466.257     2.371     0.551  43.2
       791    986.064   1483.000     0.554     0.497   0.0
       792     34.738   2039.457     2.641     0.681  -2.6
       793   1357.307   1569.627     0.485     0.460  76.9
       794    481.964   2034.803     3.046     2.315  11.9
       795    975.573   2024.523     0.519     0.478  45.6
       796     34.864   1977.972     0.706     0.574 -19.4
       797    335.347   2012.464     1.026     0.591 -66.9
       798    936.141   2033.126     0.774     0.724 -10.6
       799    357.406   1978.331     0.682     0.659 -89.1
       800   1423.211   1666.944     0.697     0.627 -72.9
       801    879.879   1989.311     0.588     0.565  53.6
       802    124.788   1570.510     1.342     0.610  45.8
       803   1802.821   1976.548     0.992     0.428 -89.5
       804   1511.639   1960.547     5.971     1.300  28.6
       805     33.376   1987.579     2.798     0.753  33.9
       806    144.064   2007.717     3.138     1.264  -9.2
       807   1394.166   2015.448     0.557     0.550 -80.5
       808   2008.844   2012.357     5.500     0.493  26.0
       809   1641.059   1935.549     0.498     0.291  89.5
       810    764.432   1575.215     2.023     1.038 -56.2
       811    844.363   1858.122     3.211     0.602 -65.4
       812    333.977   2007.198     0.631     0.601 -48.3
       813    870.096   2016.786     0.660     0.634  -8.0
       814   1998.921   1990.403     8.183     2.807   9.1
       815   1772.644   1993.878     1.126     0.859   0.3
       816   2014.074   2006.284     0.739     0.732 -47.4
       817    374.590   1984.178     0.984     0.762  -1.9
       818    880.802   1979.541     0.498     0.399  88.5
       819   1409.327   1979.817     1.862     0.691  69.4
       820   1052.252   1990.566     0.525     0.502 -70.5
       821   1183.731   1997.987     0.447     0.303 -10.2
       822    987.498   1993.316     1.923     0.738  27.8
       823    580.288   1581.929     0.464     0.283   7.9
       824    472.560   1961.759     0.731     0.688 -56.0
