#   1 NUMBER                 Running object number                                     
#   2 X_IMAGE                Object position along x                                    [pixel]
#   3 Y_IMAGE                Object position along y                                    [pixel]
#   4 A_IMAGE                Profile RMS along major axis                               [pixel]
#   5 B_IMAGE                Profile RMS along minor axis                               [pixel]
#   6 THETA_IMAGE            Position angle (CCW/x)                                     [deg]
         1    115.383    255.238    31.357     8.860  69.9
         2   1526.240     41.534     3.559     0.427  89.7
         3    913.180     21.470    10.009     1.145 -86.8
         4   1269.811     13.757     1.676     0.918  63.6
         5   1994.173     13.380     0.724     0.700  35.1
         6   1340.334     11.998     7.547     0.763 -28.4
         7   1851.898      9.191     0.707     0.679  87.0
         8    493.193      9.037     1.055     0.282 -39.6
         9   1866.641      1.000   173.070     0.289   0.0
        10    246.042     79.598    12.820     3.856  50.7
        11    361.543     15.310     0.886     0.842  -8.3
        12    828.087     16.891     0.684     0.661 -75.5
        13   1379.047     28.515     1.601     0.838  58.9
        14   1042.886     20.020     1.086     0.736 -58.5
        15   1231.777     80.763    10.396     1.350  60.8
        16   1567.333     21.779     0.928     0.742 -26.8
        17   1161.257     74.901     9.859     4.812 -24.4
        18    784.853     33.159     2.109     1.094   2.6
        19     22.368     22.687     1.222     0.571  28.1
        20     90.557     58.457     5.012     0.763 -47.3
        21    511.759     30.342     0.591     0.580 -89.8
        22     20.676     26.769     1.169     0.416  -3.6
        23     27.893     29.772     0.895     0.576 -54.8
        24    351.889    245.566    23.235     0.525  79.7
        25      7.271     31.416     1.355     0.432  32.1
        26     11.570     30.768     1.165     0.256  17.2
        27   1698.345     35.250     0.497     0.470  26.8
        28   1177.275     49.275     3.035     0.514  25.8
        29    293.075     42.856     1.440     0.378  66.4
        30      4.420     35.517     1.125     0.442  13.0
        31   1651.902     49.127     1.080     0.948 -52.6
        32   1157.544     36.584     0.499     0.492 -24.2
        33    718.419     46.749     2.050     0.519 -32.0
        34    400.533     61.206     1.344     0.796 -72.4
        35    404.745     49.805     0.473     0.470  30.8
        36    867.886     71.484     5.175     1.522 -16.7
        37   1667.340     54.783     0.514     0.505   7.7
        38   1634.857     75.878     1.808     0.855 -11.3
        39     68.187     81.828     1.571     0.895 -47.4
        40   1041.809     67.360     0.480     0.393  89.1
        41   1791.092     81.304     0.749     0.733 -19.0
        42    874.870     95.538     2.687     0.628 -52.7
        43   1620.577     78.362     0.497     0.477 -24.1
        44    783.461     93.815     1.585     0.666  70.0
        45   1360.437     97.181     2.679     1.497 -22.7
        46    345.256    130.730    13.018     1.534  26.8
        47    658.873     93.542     1.006     0.841 -75.8
        48    575.454    123.056     5.677     0.753 -43.7
        49    318.049     97.312     1.218     0.303 -60.8
        50   1556.751    116.757     4.189     1.170  54.0
        51    270.244    124.171     4.026     0.507 -87.8
        52   1549.366    100.429     0.576     0.551 -55.9
        53   2014.859    106.846     1.208     0.629 -84.1
        54    166.190     99.083     0.521     0.497  30.5
        55   1291.460    119.295     1.986     1.143  84.8
        56   1145.366    123.056     3.288     0.762 -25.6
        57    909.922    101.196     0.402     0.321  74.4
        58   1482.382    114.506     1.034     0.743 -61.5
        59   1099.389    112.408     0.873     0.832 -43.5
        60    287.116    106.181     1.014     0.385  -0.9
        61    308.539    112.220     0.498     0.433  -1.4
        62    458.129    114.577     0.531     0.498 -74.0
        63   1738.150    113.516     0.500     0.357  89.7
        64    529.078    118.234     0.477     0.430 -88.4
        65    270.096    137.032     2.432     0.270  87.2
        66    407.194    136.598     2.095     1.037 -17.2
        67   1040.052    127.007     0.434     0.397 -87.2
        68   1894.286    133.150     0.816     0.615  71.6
        69   1545.801    179.104    10.969     0.510  33.6
        70   1865.112    145.151     1.342     0.760 -82.4
        71    763.208    132.152     0.701     0.615  72.2
        72   1968.177    132.348     0.795     0.299 -30.2
        73    847.731    143.867     1.019     0.864 -67.7
        74   1266.007    190.879     6.424     0.694  61.5
        75    400.855    145.165     2.608     0.285  16.0
        76    990.973    145.588     0.709     0.564  21.9
        77   1660.938    151.385     1.257     0.550  -0.6
        78   1688.437    178.504    10.071     0.513  19.6
        79   1278.959    178.147     2.864     1.332  87.1
        80   1422.507    156.616     0.827     0.807  54.4
        81    950.521    155.025     0.502     0.233  -6.0
        82   1144.303    183.023     3.829     1.139  39.8
        83   1948.703    170.883     0.777     0.740 -85.4
        84   1144.589    196.381     4.390     0.503 -67.2
        85    475.710    170.715     0.548     0.523  62.6
        86    371.411    169.035     0.648     0.641  24.8
        87    796.136    173.062     0.344     0.305  -7.2
        88   1491.653    170.855     0.476     0.352   1.5
        89    270.096    207.570     2.333     0.294 -89.4
        90   1824.970    187.453     2.203     0.572 -51.4
        91    575.986    181.808     0.821     0.618  89.9
        92    759.873    207.974     6.031     0.885 -35.0
        93   1276.549    254.852     7.708     3.152 -53.3
        94    437.051    176.068     0.391     0.355  61.1
        95    385.632    241.158     7.505     2.366 -54.7
        96    989.630    188.936     0.926     0.720 -12.3
        97   1033.601    181.836     0.490     0.415  -2.0
        98   1018.252    189.916     0.932     0.812 -69.0
        99   2038.192    192.474     1.565     0.688 -16.9
       100   1690.589    198.063     0.492     0.249   2.0
       101    684.125    242.099     7.626     0.765 -33.6
       102   1064.761    230.983     2.061     1.717  81.8
       103   1906.801    223.051    28.058     0.512   1.6
       104   1324.678    215.884     0.467     0.392  -0.7
       105   1381.374    221.993     0.676     0.539  -0.1
       106    270.000    220.626     1.201     0.289  90.0
       107   1162.015    746.767    45.537     0.870  89.6
       108   1367.172    224.252     2.214     0.508   5.6
       109    619.081    227.988     0.937     0.765  47.0
       110   1410.166    231.355     0.840     0.685 -33.8
       111    736.194    265.767     5.136     1.153  86.1
       112    237.601    230.760     0.962     0.380  68.4
       113   1665.130    242.549     3.120     0.450 -31.9
       114    178.667    239.948     0.715     0.644  48.0
       115    991.595    238.549     0.748     0.730  43.0
       116    198.872    238.763     0.714     0.667  85.1
       117    762.859    237.902     0.585     0.557 -83.2
       118   1055.070    244.189     0.541     0.517  50.9
       119   1445.148    239.374     0.486     0.352  82.1
       120    429.440    245.096     1.363     0.463  52.7
       121   1515.254    255.763     0.844     0.739  68.5
       122    965.940    249.290     0.762     0.456 -14.8
       123   1286.457    257.257     0.934     0.608 -72.6
       124   1346.455    252.786     0.840     0.467  27.5
       125    622.078    280.494     1.739     0.776  86.7
       126   1792.983    276.406     8.932     0.680 -11.8
       127    669.823    284.340     2.791     0.866 -22.7
       128    401.729    272.496     0.631     0.403 -39.0
       129   1164.419    274.177     0.616     0.552  67.4
       130    545.960    269.234     0.513     0.349 -87.7
       131   1709.436    282.817     1.512     0.840 -10.5
       132     37.180    284.995     0.923     0.654  27.3
       133    718.361    298.997     2.553     0.863  89.5
       134    944.639    308.598     3.076     1.448 -51.8
       135    496.077    278.799     0.469     0.396  14.5
       136     83.146    326.088     7.981     0.536  37.6
       137      1.691    292.805     0.868     0.722 -87.6
       138   1926.782    298.435     1.405     1.026   0.4
       139   1992.677    301.971     1.851     0.880  41.7
       140   1339.912    293.813     0.594     0.588 -63.8
       141    607.705    298.711     0.844     0.832 -57.9
       142   1959.409    313.767     4.433     1.197  21.2
       143   1873.640    300.885     1.094     0.812 -10.9
       144   1687.677    328.402     6.027     0.755  47.7
       145    995.050    298.877     0.473     0.449  80.2
       146   1328.467    300.934     0.697     0.485 -76.4
       147   1016.253    316.098     1.232     0.893 -38.4
       148    581.787    311.164     0.771     0.680 -76.5
       149    402.727    313.207     0.773     0.698  60.2
       150    552.340    316.089     2.693     0.754 -12.5
       151   1040.760    323.283     8.729     1.024  -6.1
       152    203.488    323.664     0.678     0.599  64.8
       153   1288.274    325.859     0.679     0.671  68.6
       154   1422.479    325.119     0.542     0.452  44.4
       155    194.347    335.898     5.380     0.521 -10.6
       156    305.188    327.867     0.464     0.448 -73.5
       157    916.347    352.248     3.168     1.892  63.7
       158    382.351    329.049     0.924     0.547  25.3
       159   1583.912    334.873     0.774     0.688  34.9
       160    380.106    361.371     3.478     1.664  67.1
       161     46.261    354.707     1.902     0.680 -66.4
       162   1402.155    384.215     7.350     1.159  43.4
       163   1262.360    357.229     1.974     0.864  74.0
       164    441.133    377.905     9.515     1.504 -26.4
       165    186.104    347.451     0.948     0.657  29.7
       166    761.989    346.967     0.386     0.344  61.5
       167      7.500    517.455    12.195     1.484 -81.4
       168   1470.712    354.532     0.500     0.452  82.7
       169    469.863    443.132     8.231     2.018  86.8
       170   1015.333    383.510     6.066     0.507 -35.0
       171   1229.675    379.783     4.761     0.860  22.5
       172   1773.481    363.893     0.771     0.728  42.8
       173    990.553    369.349     3.270     0.556 -14.6
       174     48.451    365.257     0.761     0.752  73.5
       175   1890.871    373.469     1.907     1.021 -57.8
       176    504.335    393.023     4.034     0.958  53.4
       177    653.638    366.484     0.751     0.722  40.9
       178    911.025    384.127    11.526     0.519 -10.2
       179    472.777    386.179     3.208     0.405  44.1
       180    751.675    374.915     1.045     0.713 -52.6
       181    761.887    476.377    15.727     0.836  42.3
       182    819.567    373.905     0.678     0.619 -32.9
       183   1095.687    369.573     0.495     0.464  86.8
       184    323.509    413.563     5.856     0.727 -66.3
       185   1132.959    397.246     5.853     0.641 -32.9
       186     12.986    379.604     0.836     0.701  45.3
       187    620.241    374.520     0.506     0.446 -78.8
       188    344.645    390.204     1.512     0.193 -72.8
       189   1844.095    389.936     0.548     0.516  51.5
       190    844.798    425.386     6.676     0.817 -35.7
       191   2036.361    440.668     5.546     1.040 -69.5
       192    402.027    415.093     2.452     0.618 -38.1
       193   1109.432    410.998     1.014     0.900  86.0
       194   1785.816    410.085     0.702     0.665 -57.2
       195   1935.335    414.754     0.849     0.729  18.7
       196    695.474    436.777     3.457     1.288 -47.4
       197   1330.087    427.128     1.518     0.926 -70.3
       198    660.141    425.419     0.882     0.821  -1.9
       199   1468.585    420.517     0.572     0.493 -15.9
       200   1599.640    421.874     0.482     0.330  -6.6
       201    792.375    422.970     0.564     0.335   0.5
       202    794.768    427.059     0.535     0.420  82.8
       203   1517.385    428.826     0.582     0.571  77.7
       204    511.657    429.927     0.476     0.443  -9.6
       205   1227.523    431.857     0.499     0.350   0.1
       206    579.692    477.574     5.514     0.715 -61.4
       207   1601.675    470.701     3.609     0.805 -89.6
       208    456.336    439.609     0.488     0.472 -88.4
       209   1710.948    443.098     0.571     0.548 -42.6
       210   1178.737    452.900     0.782     0.724 -76.9
       211   1255.939    466.125     2.312     0.806 -48.7
       212    846.521    452.428     0.791     0.779  53.4
       213    230.820    450.167     0.621     0.534 -35.0
       214    653.866    455.660     0.534     0.487 -33.5
       215   1716.765    455.357     0.517     0.474 -75.7
       216   1860.144    466.853     1.649     0.972  11.6
       217    385.476    463.226     2.732     0.339 -11.5
       218    146.883    489.932     4.500     0.783  46.4
       219   1400.495    470.668     3.925     0.395   5.3
       220    503.207    491.973     3.603     0.531  69.8
       221   1865.464    536.190    16.695     3.811 -19.6
       222   1195.039    483.613     2.095     1.371   8.1
       223      4.350    473.479     2.683     0.276  -9.0
       224   1079.544    475.468     0.503     0.494  48.2
       225    639.379    480.868     0.485     0.338  -3.4
       226   1869.216    578.903    24.656     0.767 -22.8
       227    200.552    485.168     0.628     0.496  85.3
       228   1582.583    491.929     0.828     0.654  80.0
       229   1240.666    487.329     0.506     0.479 -40.2
       230    149.480    522.254     3.973     1.408 -85.7
       231    198.071    502.604     5.268     0.560  -9.1
       232   1890.308    490.581     0.592     0.540 -26.4
       233   1990.384    488.049     0.486     0.216  -0.4
       234    121.884    507.376     1.976     0.437 -85.1
       235    605.516    502.352     2.568     0.522  32.7
       236    131.142    497.294     0.832     0.602  76.3
       237     45.987    522.786     3.497     0.562 -69.9
       238   1260.427    498.325     1.056     0.732  -8.3
       239   1480.792    503.273     0.924     0.788  34.5
       240    872.232    502.176     0.498     0.479  82.7
       241    546.549    507.448     0.677     0.667  88.7
       242    764.804    518.335     1.559     0.798 -62.1
       243    676.775    516.070     3.455     0.725  11.2
       244   1048.407    541.400     3.288     0.496  61.9
       245   1760.042    527.337     2.171     0.733  24.8
       246   1098.339    523.405     0.768     0.668 -83.2
       247   1915.891    534.136     9.980     0.501 -11.1
       248    214.790    518.592     0.515     0.377  63.9
       249    392.963    529.109     0.984     0.847  39.1
       250    238.027    582.339     7.861     1.255  63.0
       251   1380.164    531.669     0.858     0.768 -50.6
       252    951.553    525.117     0.497     0.321   1.8
       253   1808.600    548.717     4.776     0.994 -13.0
       254    190.459    547.898     3.597     0.382   3.3
       255    149.194    543.497     0.718     0.633  -3.6
       256    601.857    546.578     7.413     0.550  -1.1
       257   1960.669    543.983     0.580     0.560 -68.5
       258    887.614    545.999     0.574     0.558 -36.3
       259   1798.871    556.214     0.605     0.595  37.5
       260    434.186    550.985     0.389     0.264   2.0
       261    967.063    556.265     0.687     0.672  58.8
       262    145.625    556.759     0.644     0.629  44.8
       263   1782.680    569.886     2.759     0.451 -65.1
       264    982.135    558.624     0.567     0.550  51.9
       265   1249.206    583.667     3.436     0.682  76.3
       266    249.176    571.231     1.151     0.724 -17.1
       267   1682.243    568.347     0.578     0.552 -77.9
       268   1767.546    567.197     1.062     0.490  84.5
       269   1128.136    574.516     0.985     0.892  80.8
       270    141.731    571.845     0.775     0.769 -19.6
       271    117.587    578.242     1.396     0.798  42.9
       272   1685.306    586.705     0.987     0.841 -32.1
       273    618.751    577.089     1.207     0.558 -31.9
       274    461.946    579.861     0.464     0.427 -83.2
       275   1055.028    580.921     0.405     0.375  84.5
       276   1982.792    588.482     0.718     0.709 -21.4
       277   1465.660    593.619     0.767     0.762 -89.0
       278    741.492    596.357     0.749     0.738 -74.0
       279    625.435    598.263     1.850     0.493  40.1
       280   1910.386    599.302     0.631     0.622   2.0
       281    681.099    602.217     0.874     0.574  22.3
       282   1194.551    626.091     3.439     1.596  44.2
       283    486.068    615.988     0.732     0.400 -65.9
       284   1568.230    615.482     0.709     0.502 -56.6
       285   1635.624    650.467     5.616     2.765 -39.2
       286    504.603    687.690    12.835     0.921  34.3
       287    484.010    626.695     2.274     0.534  -7.8
       288    321.888    622.886     0.538     0.523  60.1
       289    309.856    623.158     0.452     0.442 -12.0
       290   1751.342    620.988     0.555     0.308   0.0
       291    506.111    629.505     0.505     0.434  84.7
       292    249.912    671.451     6.065     1.133  61.0
       293   1753.532    635.203     0.772     0.565  -8.8
       294    847.039    632.842     0.559     0.490 -32.7
       295    993.126    641.441     0.633     0.354 -79.3
       296   1186.665    636.742     0.697     0.209  35.3
       297   1220.018    644.985     0.718     0.132 -90.0
       298    131.135    658.942    17.591     0.597   6.3
       299    658.340    647.651     0.754     0.720  54.1
       300   1335.667    651.153     1.751     0.315 -42.9
       301    206.467    723.735     8.728     6.841   2.2
       302    882.556    674.060     6.185     0.974  35.9
       303     71.730    668.076     3.075     1.303  14.7
       304   1753.318    660.805     1.337     0.526  18.5
       305   1172.065    671.964     0.785     0.247 -89.7
       306    281.161    672.989     0.467     0.331   1.0
       307    679.065    695.669     3.334     2.003  79.5
       308   1201.024    688.020     2.259     0.467  63.2
       309    753.667    722.036     6.749     0.919  41.0
       310    102.837    681.104     0.654     0.638 -74.9
       311   1710.239    680.087     0.666     0.643  -5.6
       312   1726.143    681.000     0.522     0.495  17.5
       313    549.450    686.106     0.776     0.669  49.8
       314   1556.244    759.006    14.320     6.240  18.4
       315    527.491    691.858     0.825     0.511  53.3
       316    751.566    690.930     0.510     0.459   4.4
       317   1315.380    744.285     7.000     0.516 -51.5
       318   1185.705    729.903     6.760     0.476 -33.6
       319   1896.505    703.319     0.623     0.604  68.1
       320   1546.034    699.308     0.462     0.182 -89.7
       321     71.960    708.607     0.787     0.611 -19.5
       322   1790.165    720.952     1.468     0.920  89.0
       323   1772.629    708.609     0.506     0.464  48.2
       324    550.033    739.836     9.061     2.141   7.4
       325    124.193    721.162     0.441     0.408  63.9
       326    488.494    743.595     6.611     0.486  26.9
       327     88.646    740.422     5.918     0.559  22.5
       328    587.168    735.108     0.455     0.449  23.4
       329   1056.290    814.467    10.799     2.529 -55.2
       330    392.933    739.117     0.545     0.515 -61.6
       331    818.404    740.526     0.623     0.580 -75.9
       332    118.977    740.447     0.580     0.478  64.1
       333   1565.910    739.740     0.578     0.482  77.5
       334   1816.565    757.737     6.175     0.620  14.0
       335   1365.115    752.173     1.055     0.873 -11.8
       336   1840.561    749.603     5.026     1.121   2.4
       337   1180.542    760.435     0.579     0.524 -22.2
       338    403.991    757.257     0.437     0.370  87.6
       339   1676.062    778.800    22.136     0.560  -1.1
       340    386.864    767.120     0.742     0.515 -69.1
       341    426.190    766.963     0.653     0.548  27.5
       342    680.371    767.971     0.483     0.233  -2.0
       343    786.134    838.158     8.705     1.180 -58.5
       344     92.272    779.662     0.490     0.445  89.3
       345    642.229    795.556     7.628     1.102  12.1
       346    841.847    791.632     1.062     0.892  -5.8
       347    850.405    790.169     2.712     0.750   6.1
       348   1810.559    801.982     3.595     0.436 -37.4
       349    237.149    787.027     0.465     0.361  -0.4
       350   1036.666    819.371     3.806     0.623  86.8
       351    952.040    790.528     0.528     0.425  79.3
       352    975.077    796.420     0.699     0.533 -60.6
       353    382.646    849.128    17.325     0.546 -22.8
       354     69.443    808.352     3.117     0.623  34.1
       355   1598.678    798.897     0.467     0.315  -0.9
       356   1024.605    828.501     4.344     0.600 -53.9
       357    516.201    808.486     1.023     0.814 -27.2
       358   1859.198    809.332     0.952     0.689 -58.0
       359    761.533    807.951     0.770     0.765  49.6
       360    974.086    809.186     3.089     0.697  -8.7
       361    278.365    814.986     1.396     0.606  52.7
       362    424.239    924.585    18.879     1.770 -54.8
       363   1812.296    815.479     0.616     0.549 -58.8
       364   1691.341    825.572     0.871     0.843   8.1
       365    321.526    839.037     1.881     0.583  83.9
       366    446.020    825.156     0.591     0.570  61.7
       367    937.802    826.250     0.680     0.667  46.5
       368    305.552    825.669     0.605     0.594  22.9
       369     49.658    840.124     0.994     0.804  76.4
       370   1337.691    855.852     2.406     1.719 -77.9
       371   1549.191    840.930     0.809     0.693 -74.2
       372   1753.405    839.877     0.875     0.836 -79.3
       373    722.188    836.157     0.589     0.469  40.2
       374   1100.576    840.303     0.517     0.476  14.6
       375   1513.139    845.478     1.249     0.850  20.7
       376   1973.563    842.509     0.701     0.636  59.0
       377    289.102    837.289     0.453     0.303 -88.0
       378    142.522    846.409     0.830     0.637 -67.6
       379    486.285    854.674     1.249     0.446  54.7
       380   1771.356   1021.956    77.412     0.583 -15.0
       381   1278.264    850.302     0.626     0.549  60.9
       382    156.561    853.043     0.695     0.210  -3.2
       383   1769.198    862.451     0.580     0.544  60.2
       384   1136.917    863.495     0.602     0.591  22.4
       385     47.016    866.608     2.330     0.810 -14.6
       386    141.418    862.762     0.557     0.535  71.4
       387   1447.379    870.195     0.757     0.748 -45.3
       388      6.722    876.204     2.277     1.140   2.3
       389   1470.896    872.255     0.657     0.580  37.1
       390   1829.674    886.546     2.634     0.974  22.8
       391   1240.597    884.416     0.567     0.556 -67.2
       392   2033.560    878.490     0.500     0.496  87.7
       393   1652.997    891.286     1.348     0.709  23.8
       394   1105.205    886.355     0.734     0.630 -79.6
       395   1049.904    883.393     0.488     0.308 -89.8
       396   1630.747    890.119     0.547     0.451  76.4
       397   1584.811    973.614    10.195     0.534  77.3
       398   1988.003    897.556    26.622     0.500   2.0
       399   1035.075    894.878     0.601     0.497  65.5
       400    189.985    898.261     0.544     0.344  73.5
       401   1016.216    895.050     0.638     0.620   2.5
       402    219.368    896.019     0.489     0.438 -12.4
       403    810.236    896.534     0.674     0.448  52.8
       404   1861.937    902.595     0.655     0.646 -84.7
       405    498.654    902.899     0.878     0.801 -73.8
       406   1179.069    899.841     0.689     0.665  10.7
       407   1084.639    916.888     1.697     0.798 -86.6
       408    187.637   1114.374    31.264     1.809  55.5
       409    401.816    901.798     0.420     0.367  52.7
       410    277.628    931.121     3.186     0.772 -82.9
       411   1408.548    946.109     7.429     0.635  44.0
       412   1257.943    916.184     1.813     0.812  32.8
       413   1043.626    919.565     0.846     0.824  89.9
       414    788.137    925.749     5.237     0.477  18.3
       415   1311.711    922.212     2.026     0.557  23.8
       416   1135.077    922.209     1.475     0.543 -61.9
       417   1390.027    918.779     0.601     0.573 -29.4
       418    170.288    924.032     2.883     0.460  -2.1
       419   1304.886    924.387     0.510     0.280 -69.3
       420   1241.426    934.301     2.095     0.763 -18.9
       421    234.889    934.503     0.721     0.697  90.0
       422    664.922    931.483     0.500     0.456  87.6
       423    672.948    938.361     0.555     0.551  29.2
       424   1283.200    949.121     7.769     0.900  12.5
       425     42.974    936.542     0.506     0.450  87.6
       426    187.448    943.074     0.590     0.544 -67.8
       427    144.947    947.769     0.819     0.802  -3.9
       428    646.551    957.898    12.071     0.541  -8.4
       429    817.000    954.453     0.964     0.826 -16.9
       430   1962.705    945.310     0.478     0.440 -50.1
       431    954.692    955.766     1.006     0.840  56.9
       432    829.589    947.380     0.498     0.480  33.9
       433     31.285    953.939     0.553     0.536 -18.0
       434    702.640    958.190     0.538     0.530  48.7
       435   1685.981    967.318     0.797     0.635  87.3
       436   1233.189    963.231     4.251     0.474  -1.8
       437    200.520    966.625     0.711     0.702  83.2
       438   1723.715    971.067     0.535     0.296  -4.2
       439   1378.464    981.680     0.570     0.538  59.2
       440     82.538   1063.723    11.038     3.011  56.7
       441   1170.665    992.493     0.841     0.777 -72.1
       442   1499.077    998.220     0.694     0.360 -86.0
       443   1919.273    992.343     0.475     0.445  85.3
       444   1617.130   1000.570     0.794     0.739  48.1
       445    415.610   1016.585     1.337     1.051 -85.1
       446   1818.147   1026.165     2.143     0.771  47.6
       447    239.844   1016.763     0.807     0.790 -35.7
       448   1002.950   1019.857     0.724     0.647 -84.8
       449     82.684   1028.378     1.069     0.723  65.8
       450    243.032   1022.326     0.639     0.622  59.6
       451   1190.703   1103.231    16.395     4.846 -33.0
       452   1248.706   1031.717     0.607     0.599  39.8
       453    154.865   1042.999     1.346     0.979  62.2
       454   1996.452   1034.773     0.604     0.572  46.9
       455   1220.726   1041.036     1.324     0.847  17.4
       456    474.573   1038.669     0.505     0.481  41.8
       457   1393.786   1052.595     1.820     0.618 -45.2
       458   1911.368   1043.225     0.495     0.402  22.9
       459    519.337   1045.128     0.877     0.271  13.8
       460   1014.762   1066.619     3.295     1.280 -55.3
       461   1370.094   1053.175     0.790     0.476 -54.1
       462   1490.546   1060.172     1.094     0.806  39.8
       463   1645.503   1070.474     2.907     1.358  26.3
       464    184.469   1052.368     0.499     0.482  -6.0
       465   1561.114   1081.119     6.647     0.493  16.7
       466   1144.952   1078.718     1.623     0.852 -78.3
       467    389.277   1079.823     2.090     0.731 -42.5
       468   1184.323   1083.026     0.484     0.478  27.7
       469   1068.449   1087.038     0.762     0.744 -62.1
       470   1696.960   1107.484     2.694     0.538  69.7
       471    970.779   1088.516     0.784     0.757 -39.3
       472    906.005   1097.141     1.849     0.607  22.8
       473   1144.090   1104.675     0.883     0.842 -88.1
       474   1173.630   1159.870     8.476     1.782 -72.8
       475   1586.411   1098.687     1.879     0.625   3.4
       476    212.843   1098.562     0.614     0.449  30.4
       477   1224.574   1108.772     2.094     0.527 -23.7
       478    131.038   1101.501     0.500     0.431  86.7
       479    791.573   1109.989     1.172     0.639  33.2
       480    169.267   1120.902     1.541     1.124 -62.6
       481    811.164   1112.979     0.514     0.371  88.4
       482    538.175   1124.164     1.576     0.829  75.7
       483   1898.352   1125.019     1.334     0.702  43.9
       484   1737.630   1144.708     2.352     0.975  65.5
       485   1947.803   1170.377     5.780     2.163  58.3
       486      3.389   1141.977     2.431     1.416  89.1
       487   1596.623   1127.422     0.494     0.484 -80.0
       488   1214.922   1135.228     0.708     0.681  71.2
       489   1576.449   1201.654     9.462     1.690 -78.6
       490   1508.074   1166.541     5.599     0.556  29.2
       491    378.821   1175.034     8.171     2.511 -19.5
       492    867.438   1148.253     0.924     0.867  61.7
       493   1160.360   1143.396     0.749     0.485  63.0
       494   1606.917   1149.406     0.691     0.672 -54.5
       495    988.964   1157.275     1.516     0.532  47.5
       496    918.576   1157.027     1.582     0.591 -22.0
       497   1441.311   1159.404     1.026     0.547  19.5
       498    495.906   1152.297     0.457     0.306  89.1
       499    498.094   1159.177     0.400     0.371 -81.1
       500     74.750   1162.402     0.697     0.687 -71.4
       501    790.508   1163.415     1.332     0.410  42.1
       502   1700.445   1178.589     3.640     0.849  -2.5
       503   1871.784   1168.875     0.619     0.600  57.3
       504   1831.662   1171.632     0.765     0.725 -87.2
       505   1468.902   1165.901     0.337     0.253  45.9
       506    609.167   1171.813     0.433     0.399 -68.6
       507   1387.052   1171.090     0.407     0.364  82.4
       508   2000.035   1186.978     0.998     0.839  43.0
       509   1168.979   1181.015     0.510     0.441 -38.6
       510    689.426   1195.274     3.048     0.739 -18.9
       511   1918.266   1993.718     0.523     0.511 -67.4
       512   1402.153    951.962   697.762   337.981  75.1
       513    194.016   1992.496     9.214     0.956 -90.0
       514   1461.981   1734.654    12.655     0.721  -7.4
       515    863.389   1774.225     7.878     2.467 -63.9
       516   1117.154   1747.761     6.105     1.797  11.9
       517    563.758   1797.305     0.461     0.428  80.8
       518    298.202   1765.168     3.034     2.052  57.3
       519   1117.346   1776.328     0.810     0.788 -59.4
       520   1840.519   1788.651     2.996     0.525  12.1
       521   1196.485   1674.963     1.603     0.712 -25.0
       522   1205.738   1767.731     3.075     1.493 -48.4
       523    517.673   1773.796     8.049     0.554  -2.9
       524    788.668   1770.587     0.832     0.793 -71.9
       525   1400.638   1752.502     1.466     0.830 -17.1
       526    868.950   1756.675     0.493     0.438  77.8
       527   1148.488   1772.708     0.500     0.455   2.6
       528   1675.501   1703.633     2.145     0.799 -17.8
       529    371.661   1755.567     0.707     0.642  -8.6
       530   1702.581   1755.952     0.533     0.528 -68.8
       531    490.599   1701.758     0.586     0.549 -39.1
       532   1717.941   1730.235     1.755     0.835 -31.0
       533   1354.165   1651.814    11.927     0.524  31.0
       534    378.527   1731.396     0.671     0.638  26.3
       535   1819.558   1748.709     2.868     0.508 -56.6
       536   1212.547   1749.224     0.896     0.649 -78.7
       537   1746.840   1752.319     0.498     0.465  38.3
       538   1105.566   1739.903     0.496     0.335   0.7
       539   1953.073   1736.254     9.544     1.154 -32.9
       540    848.924   1702.855     3.345     0.975 -88.6
       541   1821.627   1687.194     0.486     0.392 -10.1
       542    783.726   1710.219     0.655     0.646 -30.5
       543   1630.781   1729.496     0.530     0.477  85.8
       544    739.188   1715.910     0.689     0.626  -3.3
       545   1574.748   1703.880     3.799     0.512  25.0
       546   1735.786   1711.500     0.501     0.409 -84.8
       547    420.488   1633.433     0.508     0.498 -64.1
       548   1659.349   1683.780     7.778     1.333   3.7
       549   1004.230   1709.720     3.657     0.486 -26.0
       550    626.950   1685.138     0.829     0.777  68.0
       551   1125.561   1691.179     4.526     0.838  41.3
       552   1812.216   1702.583     1.152     0.491   3.6
       553    138.758   1694.403     0.530     0.497 -34.5
       554   1604.526   1682.289     0.764     0.674  10.3
       555   1694.484   1692.851     0.591     0.500  89.1
       556   1116.039   1680.777     4.896     0.523 -18.9
       557    599.486   1661.911     0.583     0.523  80.2
       558   1327.198   1639.150     3.609     0.742  -7.6
       559   1715.734   1678.765     2.141     0.474 -21.6
       560   1993.803   1683.050     0.606     0.588  32.6
       561     82.727   1666.161     0.490     0.450  56.7
       562   1356.630   1664.942     1.074     0.463  36.8
       563   1867.527   1606.745    16.603     1.976 -84.7
       564    291.466   1595.350     1.134     0.864  88.0
       565   1469.455   1657.525     0.505     0.492  48.3
       566   1674.412   1593.137     4.789     0.523  19.9
       567    572.103   1647.582     5.436     1.259  79.8
       568   1306.356   1648.317     1.513     0.537 -35.8
       569    255.094   1641.912     0.379     0.290  82.0
       570   1785.978   1646.957     4.536     0.492  -7.5
       571   1348.360   1605.542     4.402     1.389  85.3
       572   1738.812   1621.172     0.555     0.543 -21.6
       573    766.656   1636.559     0.551     0.521  48.8
       574     50.470   1630.513     1.084     0.949  76.1
       575    431.270   1628.137     0.885     0.726 -52.8
       576   1134.956   1627.623     0.692     0.683 -38.9
       577    738.317   1626.502     0.500     0.465  84.8
       578   1048.120   1614.011     5.879     1.387  37.4
       579    406.669   1623.590     0.856     0.644 -60.3
       580    733.392   1612.592     0.678     0.378  42.5
       581    810.198   1605.739     0.581     0.500  41.7
       582   1784.410   1599.154     5.235     0.712 -50.4
       583   1208.877   1600.560     0.497     0.441 -83.0
       584   1453.380   1490.346     2.666     0.399 -12.9
       585   1696.814   1600.430     0.837     0.799  -7.4
       586    907.237   1525.303     0.493     0.459  76.0
       587   2026.390   1543.743     0.505     0.431 -15.7
       588    943.141   1586.152     0.624     0.617  73.8
       589   1176.275   1596.640     0.698     0.697 -72.4
       590    840.818   1585.443     3.806     0.737 -64.9
       591    645.259   1590.126     0.900     0.868  79.9
       592    985.677   1572.387     0.626     0.583 -79.9
       593   1978.319   1586.038     1.326     0.651  -0.9
       594    696.386   1577.301     0.779     0.598 -17.5
       595    809.429   1567.704     0.496     0.456   6.8
       596    529.346   1572.071     4.628     0.539 -29.6
       597   1173.420   1577.047     0.494     0.452  -6.8
       598   1231.204   1573.629     0.606     0.598 -44.3
       599   1312.930   1576.474     0.625     0.619  80.3
       600    754.740   1565.278     0.933     0.804 -42.7
       601   1571.461   1563.079     5.020     0.479  -0.9
       602    168.422   1559.014     7.200     1.786  43.8
       603   1905.464   1544.073     4.237     0.659  -3.3
       604   2014.626   1541.766     7.847     1.862 -28.1
       605      2.137   1550.464     1.489     0.391 -38.1
       606   1329.639   1540.581     8.639     0.489  37.5
       607     20.437   1361.641     0.845     0.561 -84.6
       608   1623.846   1553.718     0.612     0.557  26.1
       609    986.032   1483.065     0.570     0.543 -85.9
       610   1637.788   1548.707     1.346     0.930  -2.1
       611   1592.706   1528.324     0.615     0.448 -78.7
       612     63.881   1550.410     1.554     0.827 -70.7
       613   1410.530   1550.786     2.076     0.844 -12.5
       614   1709.781   1527.616     6.075     0.508  23.0
       615    996.918   1521.436     0.737     0.522  66.7
       616     55.447   1533.072     0.564     0.539 -86.2
       617   1351.222   1526.636     0.535     0.491  15.4
       618   1810.911   1501.207     0.521     0.465   3.0
       619   1818.828   1887.310    10.565     0.516  -2.0
       620   1839.984   1524.623     2.335     1.185  -3.7
       621   1068.985   1539.052     0.596     0.584 -43.3
       622   1729.595   1515.921     3.757     1.086  44.7
       623     24.633   1671.200     0.972     0.860 -69.6
       624    209.605   1530.362     1.165     0.753 -27.9
       625     10.668   1476.237     0.687     0.664 -59.4
       626   1807.458   1515.797     3.269     0.624 -25.7
       627   1831.491   1478.970     0.518     0.167   3.5
       628     21.848   1508.619     1.311     0.778   6.8
       629   1945.740   1505.982     0.463     0.433  -1.1
       630    892.323   1883.082     2.489     0.712 -78.0
       631   1233.306   1658.523     2.023     0.489 -73.7
       632    438.274   1473.394     0.564     0.532 -15.7
       633   1138.533   1382.501     0.771     0.650 -30.7
       634   1649.597   1477.996     2.162     1.359  40.7
       635    543.232   1464.387    10.458     0.530 -41.9
       636   1727.120   1471.487    15.947     4.896 -82.5
       637   1403.145   1475.646     2.450     0.516  34.5
       638   1337.099   1476.283     0.460     0.299 -87.9
       639     63.906   1482.007     0.410     0.343   0.7
       640   1654.994   1487.786     0.430     0.325 -84.3
       641    142.812   1445.277     2.750     1.723   0.6
       642   1462.294   1484.058     0.464     0.313 -15.4
       643   1952.768   1490.691     2.176     0.642  78.8
       644   1412.168   1438.000    12.424     0.603  30.6
       645   1699.433   1482.341     3.689     0.581 -44.0
       646   1269.004   1487.156     0.775     0.565  63.0
       647   1257.733   1478.541     0.887     0.861 -24.5
       648    422.863   1467.354     0.799     0.656  36.8
       649   1401.517   1457.193     0.598     0.582  57.5
       650    706.308   1471.733     0.735     0.722  58.1
       651     36.081   1365.479     1.749     1.060  15.5
       652    736.362   1390.635     4.244     0.970  -7.9
       653    636.786   1388.800     0.431     0.407 -70.3
       654   1737.085   1458.910     0.867     0.764  18.4
       655    561.416   1449.927     0.837     0.801 -85.1
       656    285.894   1410.465     0.506     0.490  48.2
       657    204.679   1449.461     0.561     0.465  83.1
       658    840.846   1425.946     0.379     0.312 -32.5
       659   1791.337   1453.982     0.652     0.479  81.3
       660    466.773   1451.588     1.007     0.811 -71.8
       661   1450.440   1397.988     2.861     1.155  36.8
       662   1499.686   1393.030     0.916     0.617 -67.2
       663   1025.099   1383.730     8.743     1.378  43.2
       664    785.762   1394.543     3.636     0.734   8.0
       665   1801.895   1398.963     0.574     0.547 -82.3
       666   1939.491   1396.076     0.652     0.600  41.9
       667   2004.967   1421.265    13.471     0.768 -29.6
       668    964.971   1427.453     0.657     0.650  19.4
       669   1631.653   1429.431     0.499     0.491  47.8
       670    250.064   1432.604     0.601     0.580  41.6
       671   1627.943   1385.458     0.702     0.517 -17.3
       672    734.525   1409.408     4.120     0.840  71.9
       673   1157.852   1420.125     0.946     0.723  -8.1
       674   1833.866   1405.906     2.069     1.005 -23.2
       675   1305.364   1399.345     0.649     0.569 -67.2
       676    989.701   1909.960     1.188     0.427  18.7
       677    446.591   1346.375     1.379     0.962 -59.8
       678   1805.894   1353.136     0.421     0.403 -48.5
       679   1399.821   1382.195    10.946     0.629 -59.4
       680     35.011   1400.458     0.668     0.648 -66.9
       681   1561.778   1376.803     0.675     0.617 -88.9
       682   1371.648   1324.358     3.458     0.528  -5.1
       683   1464.959   1361.008     0.886     0.837  66.0
       684   1415.209   1352.783     0.807     0.790  28.2
       685    376.142   1361.195     0.397     0.348 -83.4
       686    354.444   1904.391     6.453     0.635  37.2
       687    591.163   1339.656    10.849     2.884 -55.5
       688    179.587   1382.612     0.497     0.482  34.7
       689   1712.398   1912.942     4.934     0.704  54.0
       690    279.155   1381.199     0.454     0.406  67.0
       691    463.495   1351.864     3.623     0.582  87.1
       692   1440.225   1580.959     0.585     0.561  89.5
       693   1036.827   1345.530     0.499     0.378 -86.4
       694    639.111   1346.455     1.005     0.698 -54.0
       695   1633.912   1348.118     5.422     2.732 -51.5
       696    415.512   1360.053     0.500     0.224  -0.2
       697    539.721   1353.683     0.529     0.513 -74.5
       698   1337.213   1345.325     4.188     2.866  20.9
       699    512.766   1339.891     0.780     0.713 -37.8
       700    619.426   1369.111     0.625     0.562  41.7
       701    319.000   1354.238     0.505     0.323 -75.7
       702    984.166   1357.164     0.787     0.742 -35.6
       703   1927.106   1336.576     0.759     0.737  68.9
       704   1380.384   1340.728     0.671     0.644 -48.6
       705    926.397   1307.474     0.789     0.746  85.4
       706   1275.275   1292.928     0.885     0.810 -86.6
       707   1091.603   1320.466     1.619     0.401  71.7
       708    928.496   1332.517     0.761     0.753  57.3
       709    219.370   1324.953     0.717     0.635  -8.5
       710     41.143   1316.806     2.488     0.658 -30.5
       711    685.330   1336.387     0.871     0.566 -79.2
       712   1477.753   1328.637     0.749     0.703 -80.6
       713   1651.318   1310.719     4.076     2.721  61.8
       714    665.338   1320.890     0.475     0.432  12.2
       715   1874.903   1297.691     1.119     0.766 -89.1
       716    911.878   1515.604     4.444     0.562  58.7
       717   1585.747   1779.384     6.511     0.503  45.9
       718    168.172   1312.254     0.699     0.508  62.1
       719    440.170   2026.615     0.730     0.730  75.6
       720    561.759   1304.736     0.597     0.342 -34.6
       721    562.088   1200.567     1.640     1.106 -18.2
       722    400.899   1924.416     1.166     0.883 -62.6
       723   1816.201   1296.631     2.802     1.054 -72.1
       724    149.259   1541.861     0.566     0.550  59.8
       725    143.983   1297.404     1.259     0.695 -45.0
       726   1800.074   1913.935     5.812     0.497  14.6
       727   1001.371   1300.208     0.926     0.426 -57.2
       728   1922.783   1300.056     0.625     0.564  45.0
       729    124.109   2037.887     0.392     0.355  45.9
       730    295.805   1276.433     0.798     0.777  28.2
       731    755.849   1282.745     6.413     1.099   9.6
       732   1544.247   1285.024     0.519     0.347  -0.1
       733   1255.419   1262.120    15.929     0.518  33.2
       734    247.900   1266.388     2.216     0.486  65.5
       735    977.459   1519.657     2.927     0.636  27.4
       736    823.706   1263.156     0.935     0.711  62.5
       737   1989.001   1262.767     7.696     1.578 -46.7
       738   1582.825   1212.979     0.437     0.418  25.3
       739    423.867   1206.161     0.666     0.600  77.6
       740    511.794   1803.171     1.275     0.821 -89.2
       741    652.583   1255.905     3.684     1.213  12.2
       742    806.248   1207.353     0.478     0.432 -87.3
       743    793.543   1206.657     0.991     0.283  64.4
       744    292.853   1209.785     0.423     0.409  22.0
       745   1278.070   1216.271     0.795     0.784 -66.3
       746   1324.594   1821.681     9.055     1.742 -29.3
       747    686.345   1834.703     5.443     0.814  74.2
       748    908.587   1250.024     0.701     0.685  75.3
       749    815.497   1251.859     0.562     0.334 -34.6
       750     37.892   1244.428     0.860     0.733 -47.0
       751    732.111   1245.416     7.138     3.894  58.5
       752    288.288   1244.887     1.055     0.594 -73.7
       753    612.764   1210.217     0.795     0.785  51.0
       754    481.319   1248.090     0.979     0.321  66.3
       755    847.363   1220.232     0.816     0.784 -30.7
       756   1822.385   1215.044     2.401     0.508  31.3
       757    165.343   1212.916     0.536     0.451 -58.9
       758    317.214   1219.375     0.630     0.622 -77.8
       759   1421.735   1223.757     0.898     0.821 -16.6
       760    703.514   1218.681     0.784     0.764  77.2
       761   1347.952   1224.107     3.970     0.983  86.7
       762   1712.404   1222.081     0.686     0.676 -18.6
       763    298.851   1221.907     0.714     0.640  76.6
       764    458.096   1736.902     0.420     0.291 -69.8
       765   1195.572   1804.301     2.360     1.442 -56.5
       766     66.336   1811.755     1.340     0.976 -25.7
       767    307.282   1726.039     0.756     0.752  82.3
       768   1077.000   1207.567     2.125     0.574  10.6
       769    595.218   1199.820     0.454     0.411 -78.8
       770    181.208   1795.918     2.164     0.332   2.2
       771    427.725   1919.517    10.045     3.769  67.1
       772    178.325   1744.042     0.635     0.617  15.8
       773   1583.470   1937.514     5.215     0.490 -39.6
       774    999.508   1587.607     7.463     0.525  27.3
       775   1120.452   1833.968     0.849     0.799  86.0
       776    620.306   1735.686     0.542     0.366  45.6
       777   1742.761   1930.768     0.536     0.507 -26.1
       778     96.531   1800.208     0.659     0.624  56.7
       779    638.020   1821.083     5.967     1.793 -82.2
       780    997.222   1824.449     0.685     0.432 -49.9
       781   1934.424   1852.358     0.836     0.821  78.1
       782   2022.674   1803.649     2.744     1.028 -64.4
       783    326.872   1833.542     0.529     0.495  86.7
       784   1966.255   1807.286     0.965     0.837  46.9
       785   1487.877   1820.149     0.528     0.525  82.4
       786   1737.263   1734.650     0.565     0.531   9.0
       787   1798.699   1823.209    12.908     1.135 -10.1
       788   1567.867   1871.978     7.200     0.891 -81.4
       789    629.349   1727.699     2.025     0.391  47.6
       790   1827.475   1832.929     3.063     0.821  24.2
       791    153.732   1825.394     0.920     0.827  15.4
       792    491.532   2024.029     0.694     0.556  68.3
       793    649.919   1840.152     0.618     0.592 -63.5
       794   1355.963   1878.253     4.126     1.590 -29.1
       795    935.275   1915.500     0.747     0.734 -85.9
       796    171.446   1534.710     3.696     1.040 -51.1
       797    571.858   1726.040     1.203     0.599 -67.1
       798    409.993   1805.173     0.591     0.559 -24.8
       799   2008.113   2018.675     0.635     0.614 -21.6
       800   1664.563   1879.175     0.607     0.490 -57.6
       801    829.633   1934.861     3.855     0.625 -68.8
       802    618.720   1729.016     0.534     0.314  -0.0
       803   1687.198   1874.260     1.342     0.788  28.8
       804   1810.021   1781.405     0.495     0.216 -87.2
       805   1307.345   1944.297     5.765     1.762  47.5
       806    103.406   1834.707    20.675     0.523 -33.0
       807    783.151   1947.263     4.913     0.482   1.5
       808   1704.994   1862.520     0.500     0.478  89.6
       809   1221.806   1853.957     6.163     0.644   8.0
       810   1344.016   1860.143    11.797     4.610 -18.6
       811   1154.782   1670.651     0.637     0.463 -41.6
       812   1056.444   1875.510     1.026     0.641 -81.1
       813   1255.613   1995.284     0.612     0.581 -69.8
       814   1619.528   1819.488     0.532     0.472  42.2
       815    108.849   1973.862     0.509     0.492  58.8
       816     28.551   1861.081    18.351     0.618 -18.0
       817    659.282   1845.172     0.773     0.744 -76.4
       818    493.081   1985.132     0.354     0.296 -84.1
       819   1910.160   1726.463     0.976     0.539 -26.5
       820   1149.475   1978.968     2.199     0.724  69.5
       821    234.754   1876.039     0.431     0.193   2.5
       822    450.043   1982.880     0.435     0.382  83.2
       823   2010.102   2038.988    13.873     0.637   2.5
       824    810.166   1229.446     1.626     0.615  81.9
       825    889.194   1976.086     1.567     1.005  33.5
       826    165.281   2014.438     1.132     0.925 -38.5
       827   1164.132   2034.587     2.026     0.795 -54.2
       828   1356.645   1978.285     0.761     0.701 -16.4
       829    625.296   2023.594    13.667     0.401 -41.8
       830   1241.469   1852.153     2.418     0.692 -67.6
       831    952.078   2016.086     0.770     0.636 -53.5
       832    311.313   1953.374     0.762     0.657  44.3
       833    438.680   1582.155     0.467     0.362  -1.5
       834   1789.591   2016.083     0.537     0.504  69.3
       835    723.739   1991.061     0.440     0.254   1.8
       836   1757.334   2002.125    13.357     0.556 -30.2
       837   1647.423   1888.937     2.319     0.731 -28.2
       838   1458.918   2014.863    19.164     0.888  14.9
       839   1762.908   2020.675     1.052     0.368  47.5
       840   1511.201   1947.041     0.496     0.470 -22.7
       841   1990.952   1970.898     4.370     0.957  38.0
       842   1814.359   2027.113     0.757     0.729  39.5
       843    872.056   2038.386     1.232     0.618 -87.7
       844    583.467   1892.553     2.943     0.506  -5.9
       845   1875.897   2035.854     9.047     0.486 -18.7
       846   2029.377   1892.409     0.497     0.480 -57.4
       847   1822.032   1900.974     0.573     0.540 -82.4
       848    931.042   1967.944     0.576     0.220 -89.1
       849   1788.666   2036.554     3.539     0.515  53.6
       850    214.280   1880.703     5.979     1.904  52.4
       851    306.324   2020.880     9.291     0.522 -12.3
       852    990.694   1991.058     0.564     0.544  64.7
       853   1267.898   2016.178     9.455     0.547 -37.9
       854    899.324   1889.997     0.516     0.502 -88.4
       855   1928.250   1990.232     0.795     0.784 -58.0
       856   1828.461   1993.204     0.827     0.436  -7.2
       857   1344.884   1991.996     0.536     0.517 -62.9
       858    553.098   1900.723     0.465     0.313  76.4
