#   1 NUMBER                 Running object number                                     
#   2 X_IMAGE                Object position along x                                    [pixel]
#   3 Y_IMAGE                Object position along y                                    [pixel]
#   4 A_IMAGE                Profile RMS along major axis                               [pixel]
#   5 B_IMAGE                Profile RMS along minor axis                               [pixel]
#   6 THETA_IMAGE            Position angle (CCW/x)                                     [deg]
         1    776.673     58.031    14.037     0.654  26.6
         2     21.994     54.499     9.501     4.520  59.3
         3    331.762     40.799     4.445     0.552 -84.5
         4   1037.291     35.151     4.889     1.385 -41.0
         5    447.482     24.616     6.206     0.544 -29.9
         6   1627.060     14.453     6.078     1.487  76.2
         7   2005.861     17.499     5.249     1.065  31.2
         8     31.468     16.374     1.013     0.694 -13.6
         9   1526.551     11.350     2.301     0.645  85.8
        10    733.900     11.615     0.741     0.706 -22.9
        11    673.300      8.231     1.895     0.575  50.6
        12   1866.743      1.000   173.017     0.289   0.0
        13   1138.941     13.396     0.683     0.649 -71.8
        14   1506.948     19.364     0.790     0.521  42.7
        15    459.875     63.607     8.372     0.532  42.3
        16   1202.178     45.456     4.188     0.539 -43.7
        17     16.173     23.538     0.920     0.833 -89.2
        18   1504.218     30.113     0.791     0.757 -72.9
        19   1244.411     29.653     1.525     0.769   7.0
        20   1526.735     27.711     1.351     0.314  58.8
        21    548.055     34.253     6.447     0.899   4.5
        22   1026.096     32.798     2.275     0.526  -4.0
        23    843.039     28.092     0.408     0.348 -88.4
        24     19.080     28.785     0.915     0.332 -16.5
        25   1526.188     46.908     2.478     0.346 -85.7
        26      3.047     29.305     1.293     0.433  -7.4
        27      3.468     32.768     1.184     0.451 -31.7
        28    682.801     41.897     3.594     0.502  13.6
        29   1807.032     34.235     0.496     0.478  89.2
        30    569.978     52.732     4.663     0.672 -25.8
        31    360.587     58.421     2.784     0.505 -65.7
        32   1934.099     55.194     2.453     0.855 -65.7
        33   1964.810     43.562     0.663     0.642  20.2
        34   1514.764     48.472     0.989     0.892  65.3
        35    694.146     49.364     0.625     0.610  63.5
        36   1674.072     55.043     0.816     0.662 -86.4
        37   1438.010     55.053     0.767     0.736 -61.6
        38   1282.641     53.404     0.650     0.619  11.6
        39   1195.416    105.526     8.088     1.313 -46.8
        40    404.879     55.694     0.734     0.675 -66.9
        41   1608.944     58.787     0.827     0.645 -54.0
        42   1696.105     62.000     0.372     0.355 -17.5
        43   1526.688     57.272     0.859     0.365 -19.1
        44    247.038     71.884     1.112     0.696  84.6
        45   1736.259     62.164     0.488     0.438  29.8
        46    602.140     64.715     0.456     0.374 -85.4
        47   1745.017     96.252     5.883     0.984 -50.1
        48   1873.390     66.768     0.604     0.587  32.4
        49    860.081     92.718     7.788     0.871  21.8
        50   1526.842     82.254     1.942     0.775 -89.8
        51   1044.586     78.965     0.810     0.759  66.2
        52   1347.438     78.276     0.584     0.566 -84.4
        53    369.313     84.371     0.924     0.852 -83.2
        54    270.063    135.128     3.649     0.233 -88.9
        55   1620.568     78.358     0.508     0.466 -34.1
        56    518.406     92.517     5.505     0.567   2.2
        57    284.502     82.424     0.505     0.490 -33.6
        58    185.546    149.369    14.521     0.548  29.5
        59    233.582     87.376     0.528     0.490  68.2
        60    817.177    100.465     9.537     1.016   1.0
        61     63.291     91.352     0.611     0.582  73.5
        62   1844.353     89.268     0.522     0.519 -33.8
        63   2001.550     94.104     0.719     0.689 -11.7
        64    899.362    121.746     2.791     0.542 -87.6
        65    613.314    105.962     0.728     0.714  35.0
        66   1179.607    102.091     0.593     0.565 -48.3
        67   1072.469    103.167     0.553     0.521  77.7
        68   1357.431    103.872     0.506     0.460  -6.9
        69    450.080    179.249     8.459     3.318 -85.0
        70   1130.636    116.575     0.874     0.767 -58.6
        71    748.552    118.364     6.755     0.509  -3.9
        72   1526.737    115.523     1.396     0.227 -53.9
        73    661.982    159.169     7.599     0.539  24.5
        74    993.746    121.678     0.730     0.715  13.4
        75    977.933    130.211     0.736     0.718  77.5
        76    458.277    136.957     4.739     0.558   6.7
        77   1754.797    168.251     7.066     1.300  51.1
        78   1624.713    157.009     4.415     0.835 -57.6
        79    995.298    144.633     0.571     0.435 -51.4
        80   1048.308    200.000     7.272     2.163 -88.7
        81   2005.766    148.720     0.575     0.551 -72.5
        82   1109.577    148.412     0.667     0.653 -59.2
        83   1785.301    151.314     0.668     0.641 -49.0
        84    322.866    323.048    22.702     5.904 -87.9
        85     51.680    165.175     3.634     0.819  -8.9
        86   1987.949    157.959     0.411     0.396 -79.3
        87    722.794    182.593    12.998     0.501  13.8
        88   1462.064    207.658     7.213     2.362 -59.7
        89   1477.557    169.384     3.183     0.816  -0.8
        90    371.461    169.093     0.685     0.615  60.9
        91   1092.595    211.180     5.144     1.336  65.6
        92   1159.679    173.887     0.617     0.595  52.5
        93    287.371    198.371    10.314     0.501 -14.6
        94     66.327    172.265     0.621     0.173  43.0
        95   1438.230    221.322     6.595     1.951 -54.8
        96    134.940    189.933     2.254     0.524  34.1
        97    911.868    200.910    16.368     0.545   8.1
        98    416.157    183.731     0.579     0.561  37.7
        99    416.567    195.903     1.146     0.701  75.2
       100    461.838    198.185     1.765     0.781  44.0
       101   1188.380    198.170     0.741     0.698 -61.7
       102    646.977    197.756     0.440     0.287 -87.8
       103   1163.903    200.399     0.956     0.492   7.3
       104   1416.261    215.480     0.908     0.824  -6.9
       105   1163.004    766.546    64.499     0.062  90.0
       106   1962.221    208.868     0.423     0.391   5.5
       107   1801.900    217.921     1.671     0.603  27.1
       108    122.511    210.857     0.500     0.350   1.1
       109   1129.015    218.667     0.472     0.426 -82.8
       110   1569.397    224.449     0.570     0.536  60.0
       111    530.754    229.864     0.734     0.703  64.1
       112    978.638    225.586     0.494     0.479  72.2
       113     52.347    231.649     0.524     0.494  53.7
       114    178.686    239.960     0.686     0.667  86.1
       115    181.580    248.823     1.042     0.889  27.9
       116   1445.204    239.304     0.460     0.403 -86.4
       117   1337.411    282.420     7.740     1.440 -40.2
       118   1549.464    274.742     3.879     0.532 -80.4
       119   1833.150    247.025     0.459     0.328  -0.1
       120   1822.590    259.842     0.720     0.693 -58.7
       121   1560.240    258.894     0.757     0.415  60.7
       122   1965.275    266.967     5.727     0.545   8.7
       123   1526.788    262.396     1.079     0.625  65.0
       124    384.122    263.251     0.495     0.476  67.8
       125   1204.018    262.933     0.398     0.382   5.6
       126   1330.132    268.222     0.655     0.607  47.7
       127    742.906    276.456     7.843     0.509  -2.4
       128   1315.236    322.584     4.825     1.919 -87.6
       129    367.819    271.345     0.476     0.384  86.1
       130   1637.191    284.717     2.282     0.514 -16.4
       131   1307.386    282.992     0.778     0.328 -59.4
       132   2013.749    323.493     7.459     0.636 -44.4
       133   1209.285    286.115     1.045     0.597  66.1
       134   1500.183    283.670     1.066     0.500  46.0
       135    216.922    331.835    17.307     0.534  19.8
       136   1848.583    289.331     0.751     0.272  33.3
       137   1701.688    296.664     0.668     0.635 -44.8
       138   1199.657    295.944     0.489     0.445  12.7
       139   1128.858    305.155     0.843     0.680 -85.2
       140   1212.011    309.611     2.526     0.733 -15.8
       141   1246.017    299.183     0.535     0.355  22.4
       142    806.459    303.129     0.498     0.372   1.7
       143    863.922    330.825     2.835     0.685 -60.0
       144   1936.608    359.655     6.459     0.930  62.8
       145    605.810    316.305     0.709     0.703 -28.9
       146   1730.196    387.246     9.370     0.668 -68.3
       147   1132.411    347.150     6.418     0.388 -33.9
       148    119.279    317.915     0.626     0.614 -83.7
       149    333.458    325.170     0.754     0.503 -81.3
       150   1258.557    322.891     0.590     0.579 -48.8
       151    403.302    354.743     3.126     2.635   2.3
       152   1150.181    331.840     1.277     0.211 -44.1
       153   1064.487    333.153     0.505     0.410 -13.8
       154   1435.971    336.666     0.660     0.634  88.7
       155   1171.484    345.673     2.165     0.915   0.3
       156   1298.514    342.191     0.755     0.744  59.6
       157   1370.144    364.655     3.349     0.585 -72.6
       158   1781.285    354.223     3.135     0.813 -10.4
       159   1281.444    348.019     0.635     0.621  19.6
       160   1196.650    355.883     0.768     0.752 -87.4
       161      7.670    516.167    16.114     0.914  89.9
       162    808.592    363.332     0.896     0.718  30.1
       163   1141.197    357.831     0.670     0.603  39.7
       164    227.007    363.299     0.744     0.550  -9.4
       165    700.189    361.709     0.608     0.553 -31.7
       166    575.598    394.913     4.691     0.701 -89.6
       167   1065.920    362.192     0.607     0.588  71.1
       168    633.564    359.388     0.714     0.268 -50.9
       169    788.128    362.876     0.620     0.590  69.2
       170   1067.416    358.985     0.571     0.314  -0.6
       171     64.646    361.183     6.041     0.313  -2.2
       172   1760.600    381.515     0.719     0.606 -82.5
       173    599.439    377.018     0.496     0.414  -1.5
       174   1396.423    379.423     0.500     0.494  74.1
       175   1649.966    442.529    16.647     2.316 -21.3
       176   1435.593    436.591     7.710     0.529 -74.1
       177   1386.020    382.920     0.367     0.235  88.9
       178    297.835    398.701     2.041     0.832  70.0
       179   1346.940    406.211    15.785     1.271  -8.3
       180   1252.516    389.638     0.573     0.535  65.6
       181    115.188    424.291     9.133     0.996 -27.6
       182   1368.946    393.709     0.897     0.428  39.9
       183   1568.922    420.715     7.354     1.717  15.4
       184    403.286    410.269     0.995     0.928 -27.0
       185   2008.346    462.062    14.694     0.509 -25.8
       186    525.569    420.338     1.957     0.780 -27.6
       187   1943.964    416.554     0.627     0.620   9.9
       188    283.797    424.356     1.745     0.503 -86.9
       189   1260.351    432.608     4.790     1.140  29.0
       190   1735.317    424.073     0.947     0.874 -77.5
       191    831.000    425.936     0.473     0.405 -90.0
       192   1233.159    426.974     0.715     0.540  -7.3
       193    794.705    426.935     0.604     0.432  69.6
       194   1509.590    465.030     4.248     0.794 -75.4
       195    511.686    429.920     0.464     0.450   6.7
       196    618.379    448.037     8.184     1.473 -11.5
       197    195.266    441.190     0.744     0.732  24.4
       198    537.270    443.949     0.826     0.767 -70.7
       199   1601.686    470.771     3.633     0.821 -89.4
       200   1849.605    469.599     5.573     0.502  39.1
       201   1733.567    437.632     0.497     0.481 -15.8
       202   1335.738    437.480     0.511     0.426  67.4
       203    520.000    443.257     0.963     0.289  90.0
       204   1391.030    439.694     0.461     0.260  86.4
       205   1372.684    439.507     0.500     0.465  87.7
       206   1318.821    446.209     0.575     0.562  47.9
       207   1084.156    447.308     2.508     0.505 -11.7
       208   1451.379    474.118     2.743     1.290 -52.2
       209    513.211    467.322     6.025     0.579 -24.0
       210   1643.681    561.950    16.777     1.961 -49.5
       211   1674.297    511.835    10.381     1.817  42.6
       212    132.960    494.211     7.062     1.463  43.6
       213    220.090    454.152     0.398     0.356 -75.7
       214    163.384    459.988     1.334     0.631  21.9
       215    447.690    457.676     0.657     0.625 -88.1
       216   1319.738    460.628     0.817     0.815  77.3
       217    856.576    459.816     0.519     0.479  30.0
       218    340.988    532.012     8.373     1.617  69.6
       219   1389.627    476.659     0.507     0.505 -78.9
       220   1192.854    483.250     0.752     0.670 -70.6
       221    177.377    478.056     0.498     0.484  79.3
       222   1632.306    485.980     0.623     0.603  84.5
       223   1096.546    484.282     0.635     0.492  79.4
       224   1360.803    492.400     0.912     0.489 -33.3
       225   1649.266    500.433     1.332     0.845  32.3
       226   1261.532    497.827     0.632     0.620  88.9
       227   1607.639    512.524     1.022     0.698 -71.3
       228     43.993    508.696     0.564     0.534  89.6
       229   2009.079    510.578     0.570     0.545  21.9
       230   1197.407    510.916     0.651     0.623  -9.0
       231   1496.056    514.275     0.607     0.583  78.1
       232   1191.769    522.363     0.869     0.780 -36.8
       233   1544.011    527.628     0.922     0.710 -52.8
       234   1640.276    531.789     0.945     0.925 -62.1
       235   2022.776    527.894     8.601     0.614  -2.4
       236     91.853    589.992     9.056     0.545 -47.0
       237   2032.524    539.590     0.952     0.771 -69.1
       238   1700.258    535.130     0.959     0.840  48.0
       239   1872.084    532.728     0.729     0.710  89.9
       240   1778.073    540.226     6.375     0.502  -4.6
       241   1621.975    536.002     0.328     0.310   0.2
       242   1682.988    539.241     0.544     0.317  88.3
       243   1804.011    580.143     6.995     2.639 -68.1
       244   1164.987    552.781     4.319     0.502 -23.1
       245    241.483    572.347     4.168     0.489 -71.1
       246    171.921    545.860     0.359     0.269 -87.5
       247   1095.205    560.036     2.100     0.734  44.4
       248   1979.264    545.240     0.446     0.422  27.5
       249    254.005    548.400     0.494     0.259 -89.6
       250   1357.803    556.943     2.374     0.751   7.2
       251   1839.084    554.326     0.496     0.455  86.2
       252   1702.887    584.928     5.699     2.132 -31.8
       253    577.623    562.837     1.279     0.714  35.3
       254   1850.166    559.138     0.648     0.321 -69.3
       255    167.240    559.600     0.507     0.411 -67.1
       256    311.842    748.278    24.055     1.949  75.1
       257    349.920    567.947    10.185     0.525  -3.7
       258     34.835    562.009     0.641     0.605  -7.0
       259   1770.974    572.470     1.571     0.585  69.6
       260    475.802    581.237     1.529     0.758  76.0
       261   1499.738    563.592     0.492     0.440  87.5
       262   1218.509    579.516     1.428     1.022  24.1
       263   1819.387    568.759     0.578     0.293 -38.7
       264    166.781    570.625     0.485     0.412 -82.0
       265   1839.116    579.126     0.831     0.789 -79.7
       266   1786.181    579.138     0.699     0.672  63.2
       267   1480.224    611.416     5.063     0.894  81.4
       268    856.041    575.622     0.504     0.443  85.9
       269    181.580    587.261     0.886     0.770  83.0
       270   1614.099    588.184     1.320     0.783   9.4
       271    881.217    632.741     6.447     0.510  64.6
       272    351.140    589.996     0.710     0.662 -32.0
       273   1124.252    658.845    13.273     1.015 -44.1
       274   1014.425    609.597     0.963     0.745  85.1
       275    465.774    615.446     1.702     0.809  87.8
       276   1948.814    603.528     0.506     0.494  39.7
       277     64.608    613.161     0.921     0.855 -54.6
       278    478.268    605.981     0.529     0.319  -0.4
       279    312.588    609.167     0.580     0.576  87.5
       280   1500.139    614.660     0.964     0.669  35.3
       281    471.614    643.407    10.811     1.411  23.6
       282   1955.432    640.532     3.997     0.539  65.7
       283   1772.454    623.109     0.766     0.704 -58.4
       284    339.608    630.960     1.849     0.740 -71.5
       285   2018.481    623.069     0.619     0.592 -84.2
       286   1287.730    636.437     2.543     0.564 -45.7
       287   1561.487    625.568     0.551     0.540  64.5
       288     98.302    629.018     0.488     0.458 -79.1
       289   1807.653    630.738     0.557     0.547 -53.8
       290    396.432    648.602     1.636     1.062  46.7
       291     10.340    646.125     1.346     0.785  44.5
       292   1084.700    636.339     0.509     0.454  35.8
       293    219.352    652.871     2.326     0.587  61.3
       294    192.874    638.627     0.485     0.329 -83.2
       295    628.211    682.906    10.246     1.318  28.5
       296   1465.052    646.241     0.748     0.668  11.0
       297   1949.763    652.371     1.135     0.779  58.7
       298    742.272    647.484     0.631     0.573 -83.8
       299   1574.656    668.690     1.793     0.938  87.8
       300   1403.059    655.382     0.768     0.726  17.9
       301   1994.740    650.934     0.554     0.538 -83.8
       302    153.265    662.398     1.763     0.640  36.8
       303    255.802    668.223     1.359     0.872 -60.3
       304   1411.598    664.614     1.025     0.914 -12.1
       305   1093.971    655.269     0.529     0.333 -87.7
       306     75.306    710.006     6.050     0.627 -66.3
       307    431.061    734.160    16.055     0.568  32.9
       308    613.473    715.337     6.402     0.644 -75.1
       309   1946.098    662.899     0.602     0.573  49.0
       310    872.996    663.283     0.786     0.295  89.5
       311   1345.098    660.767     0.430     0.288 -76.4
       312    361.009    756.483    10.957     1.072  71.9
       313   1106.943    680.110     0.862     0.664 -33.2
       314   1912.475    670.199     0.500     0.399   2.6
       315    950.068    679.283     0.691     0.638 -49.3
       316   1291.039    680.513    10.068     0.543   1.1
       317    977.259    687.130     1.534     0.750 -32.6
       318   1239.400    680.781     0.529     0.471  55.9
       319   2007.129    684.087     0.650     0.635 -50.9
       320   1663.023    729.566     5.693     1.030 -46.6
       321    101.495    747.849    11.790     1.629  34.9
       322   1500.647    692.962     0.482     0.302   3.5
       323   1353.053    725.517     3.557     0.573 -69.2
       324   1571.318    704.135     0.838     0.790   2.9
       325    172.927    741.455     9.636     4.366  19.2
       326     35.487    711.089     1.247     0.563   5.3
       327   1453.106    707.354     0.605     0.275  75.1
       328    374.790    716.641     1.004     0.850 -15.0
       329   1159.166    711.205     0.685     0.622  15.3
       330   1724.651    740.579     4.485     0.500 -65.8
       331   1772.659    708.677     0.482     0.459 -36.9
       332   1995.313    721.701     1.358     0.947   0.1
       333    904.716    752.403     5.960     1.015 -61.8
       334    308.700    714.531     0.500     0.457 -81.2
       335    757.037    726.307     0.997     0.506 -37.8
       336   1904.250    735.535     0.750     0.701  52.9
       337    920.130    737.900     0.686     0.665 -71.0
       338      7.278    737.369     0.694     0.624 -44.3
       339   1497.094    751.754     3.021     0.375 -47.7
       340   1608.283    742.883     2.086     0.720   6.5
       341   1644.711    765.736     4.964     0.603 -37.3
       342     12.240    744.641     0.704     0.682  54.2
       343   1133.930    746.313     0.572     0.518 -19.1
       344    599.375    755.805     0.876     0.493  78.9
       345    796.022    768.562     2.112     1.176  70.2
       346   1217.052    768.614     2.073     0.783  56.6
       347    637.556    752.019     0.575     0.319   0.3
       348    853.894    807.560     5.468     3.668  83.6
       349   1043.450    801.578     6.681     1.888  48.3
       350   1360.524    773.951     1.482     1.306  18.8
       351   1783.134    764.226     0.726     0.684  43.3
       352    460.806    767.853     0.500     0.413 -40.9
       353   1611.262    802.785     4.798     0.807  63.5
       354   1688.529    769.700     0.501     0.456 -13.0
       355   1783.892    779.058     0.538     0.530  73.2
       356    650.021    780.214     0.501     0.322 -89.5
       357    880.615    876.527    11.662     2.387  62.2
       358    171.639    818.122     3.911     0.939  68.2
       359    900.285    806.949     1.333     0.806  77.1
       360    753.780    794.531     0.507     0.483 -88.5
       361   1397.694    815.505     1.369     0.868  81.7
       362   1132.029    809.939     0.710     0.701  68.7
       363   1407.425    812.499     0.694     0.591  75.3
       364    424.641    832.469     6.533     1.738   3.3
       365    112.667    825.109     1.328     0.915  36.6
       366    334.599    836.529     5.673     0.566  21.9
       367    929.516    821.212     0.590     0.577  44.5
       368    601.750    828.500     1.124     0.416 -83.4
       369   1571.307    834.993     0.582     0.533 -88.5
       370    310.144    832.524     0.499     0.480  88.4
       371    554.147    850.474     4.542     1.018  24.4
       372   1432.903    842.538     0.506     0.476 -82.3
       373   1070.479    851.596     1.657     0.497  78.5
       374    916.044    869.438     3.990     0.739  61.1
       375   1959.487    877.673     5.342     0.632  45.8
       376   1734.971    844.949     0.378     0.349 -85.9
       377    361.651    892.786     6.637     1.578  64.1
       378    927.794    850.627     0.484     0.403 -83.9
       379   2023.727    911.855     8.536     4.219 -33.2
       380   1086.259    868.546     7.443     0.891   2.9
       381   2039.301    879.001     1.567     0.710  85.2
       382    729.888    868.631     0.796     0.741   9.5
       383    102.269    877.709     1.874     0.817 -18.2
       384   2034.493    945.438    10.494     3.891 -74.1
       385    821.694    873.895     0.516     0.504   0.9
       386    500.798    881.289     0.844     0.825   5.0
       387   1262.728    879.437     0.568     0.534 -13.3
       388   1769.316    885.169     0.653     0.586  66.0
       389   2029.400    885.672     0.548     0.530 -87.6
       390   1027.904    893.535     1.950     0.909 -20.0
       391   1005.052    889.856     0.896     0.526  53.4
       392   1715.548    890.895     0.707     0.692   8.1
       393   1633.601    890.994     0.569     0.517  50.1
       394   1414.047    888.197     0.398     0.298 -88.2
       395    364.094    912.750    15.287     0.612   7.6
       396    877.299    896.823     0.528     0.516 -66.1
       397   1861.937    902.596     0.655     0.647 -81.0
       398   1069.692    904.156     1.817     0.609 -10.8
       399    301.350    896.067     0.477     0.250  -0.1
       400     73.695    905.481     1.088     0.454  81.6
       401   1070.213    898.255     0.437     0.408 -79.0
       402   1739.889    915.718     1.113     0.955 -84.0
       403   1038.927    912.169     0.484     0.458  77.1
       404   1447.385    915.733     0.700     0.672   7.4
       405   1621.786    919.409     0.658     0.644 -77.6
       406   1985.323    957.468     5.232     0.666  78.5
       407   1382.502    920.016     0.631     0.574  22.8
       408    860.203    959.874     4.723     0.555  85.8
       409    917.279    920.793     0.550     0.365  50.8
       410   1376.016    925.684     0.488     0.441 -78.6
       411     84.751    934.167     1.501     0.720  -9.4
       412   1598.787   1021.224    30.916     0.519 -20.1
       413    296.701    931.700     0.472     0.451 -54.5
       414   1539.205    932.704     1.075     0.558   9.9
       415    898.251    950.629    15.590     0.505   3.3
       416   1300.193    957.478     4.517     1.183  19.1
       417    829.545    947.330     0.501     0.467 -17.3
       418    149.252    949.160     0.434     0.367   2.3
       419    786.479    990.668     4.920     0.586 -72.8
       420    787.758    953.234     0.491     0.478 -32.3
       421    630.807    958.806     0.748     0.658 -89.5
       422    131.126    959.787     0.675     0.660  75.6
       423     68.521   1023.056    10.168     1.789 -55.2
       424    591.898    960.227     0.424     0.296 -78.0
       425    992.333    962.338     0.614     0.262  45.1
       426    942.136    973.548     0.846     0.785 -83.2
       427    378.090   1030.964     8.951     0.530  64.7
       428   1499.343    969.897     0.694     0.577  76.3
       429    998.503    973.085     1.005     0.476 -69.9
       430    667.446    970.676     0.640     0.528 -85.3
       431   1736.312    975.708     0.543     0.525  52.5
       432   1939.167   1009.339     5.222     2.406  -6.9
       433   1792.577   1008.596    10.351     0.939 -19.5
       434    259.838    990.890     1.706     0.654  35.6
       435    907.493    995.297     0.649     0.636 -66.9
       436   1887.924   1000.486     1.078     0.242  84.1
       437    483.285   1004.729     0.761     0.725  68.9
       438     72.028   1006.182     0.914     0.816  66.7
       439    106.457   1054.453    13.211     0.562 -23.9
       440   1315.704   1003.902     0.473     0.440   3.5
       441   1432.523   1010.946     1.047     0.777  42.9
       442   1046.135   1012.849     2.398     0.597  14.5
       443    773.436   1016.294     0.698     0.666  26.0
       444   1538.515   1018.270     0.741     0.532   2.3
       445   1662.968   1021.311     0.833     0.825  61.2
       446   1969.020   1014.808     0.488     0.351  90.0
       447   1906.484   1031.487     0.587     0.491  22.2
       448   1998.278   1076.141     8.491     2.650  39.8
       449    588.078   1035.246     0.548     0.458  42.0
       450    927.072   1054.438     9.524     1.440  -3.8
       451   1426.758   1049.691     1.158     0.756  56.1
       452   1364.973   1082.195     4.286     0.829 -89.5
       453   1022.551   1065.377     3.252     0.740 -38.4
       454    885.360   1053.154     0.794     0.768 -64.5
       455    236.034   1050.228     0.482     0.185  86.6
       456   1484.933   1052.254     0.607     0.598 -60.8
       457     65.924   1052.048     0.518     0.476  30.2
       458   2028.464   1059.827     0.795     0.688  58.0
       459    222.634   1058.305     0.717     0.635  -9.4
       460    371.972   1057.922     0.626     0.565  50.8
       461    764.821   1076.096     2.782     0.329  61.3
       462   1438.437   1091.254     4.567     1.986 -39.4
       463    800.896   1154.680    11.020     1.577  72.9
       464   1189.598   1072.639     0.953     0.792  -2.3
       465   1125.828   1072.779     0.734     0.707 -79.2
       466    580.202   1075.745     0.624     0.589 -81.6
       467   1782.694   1068.945     0.688     0.420  69.6
       468    218.986   1069.547     0.498     0.423  86.1
       469    436.989   1075.329     0.539     0.487 -66.3
       470    938.005   1102.819     2.622     1.582  85.7
       471   1214.407   1097.350     1.832     0.739 -87.4
       472    908.110   1084.672     0.662     0.648 -45.2
       473    295.943   1106.344     2.103     0.770 -50.1
       474    973.576   1095.866     0.825     0.455   6.9
       475    982.874   1095.113     0.665     0.469  86.7
       476   1092.745   1104.854     1.147     0.795 -64.6
       477    967.929   1099.629     0.649     0.616 -78.5
       478    213.010   1098.466     0.602     0.499   2.6
       479     28.081   1106.510     0.715     0.686  49.1
       480   1976.775   1110.678     0.748     0.730  -6.2
       481      5.286   1131.253     3.000     0.908 -87.1
       482    581.897   1108.318     0.548     0.539 -25.4
       483   1658.988   1110.972     0.619     0.607 -50.7
       484    425.695   1111.814     0.461     0.389   1.3
       485   1922.164   1226.057    11.857     3.043 -69.7
       486   1674.700   1116.811     0.523     0.510  -6.0
       487   1936.338   1123.168     0.742     0.658 -13.0
       488    964.963   1185.040     8.500     0.824  76.6
       489    897.003   1126.162     0.586     0.551  74.0
       490   1322.589   1156.430     3.674     1.742  55.7
       491   1950.288   1126.280     0.737     0.653  38.4
       492   1390.453   1127.472     0.654     0.643 -65.0
       493    766.502   1132.477     3.245     0.737   4.4
       494   1590.024   1130.703     1.281     0.618   3.5
       495    161.254   1183.165     6.822     0.910  59.2
       496    199.360   1128.500     0.509     0.500   7.2
       497   1640.366   1133.045     0.613     0.503 -47.5
       498    635.479   1141.636     0.741     0.705 -47.0
       499   1398.154   1137.237     0.454     0.325  60.0
       500    913.696   1162.796     5.865     0.541 -23.2
       501    303.339   1154.072     6.993     1.447 -10.0
       502   1354.912   1154.255     0.859     0.810 -71.3
       503    878.485   1155.237     0.717     0.700  80.3
       504    709.117   1152.532     0.515     0.498 -12.8
       505   1942.001   1163.910     1.019     0.747  66.4
       506   1332.999   1163.684     0.619     0.605  86.7
       507   1704.063   1174.704     3.960     0.487 -21.9
       508     76.716   1176.390     0.970     0.523   0.3
       509   1037.638   1182.524     1.553     0.816  88.3
       510    604.943   1227.650     8.301     0.858  52.2
       511    503.424   1184.617     0.953     0.517 -89.4
       512   1027.182   1182.135     0.731     0.659  72.2
       513    187.082   1229.435    10.826     2.800 -40.4
       514   1136.576   1190.660     3.429     0.566 -17.6
       515    535.854   1190.244     1.113     0.539 -57.6
       516    796.482   1963.535     0.525     0.494 -65.6
       517   1402.173    951.997   697.654   338.025  75.1
       518    194.018   1992.599     9.184     0.958 -90.0
       519   1712.076   1717.068     9.721     1.050  56.5
       520   1768.557   1759.265     1.155     0.630 -14.2
       521   2008.590   1762.217     2.815     0.649 -71.4
       522    888.385   1678.598     1.415     0.682  14.7
       523   1872.307   1751.466     1.338     0.229 -53.2
       524    917.204   1777.114     0.527     0.512  38.0
       525    405.046   1845.634     8.918     1.644   0.7
       526   1237.561   1476.392     0.499     0.486  26.7
       527    380.785   1493.289     4.435     0.674  56.6
       528   1583.657   1696.237     2.169     0.910  26.5
       529    290.862   1756.244     3.509     0.827  68.9
       530    794.724   1733.947     1.558     0.714  58.3
       531    376.134   1764.676     1.664     0.479  66.0
       532    310.285   1669.883     5.787     0.553   9.9
       533   1734.315   1725.056     0.704     0.564  88.1
       534   1813.529   1713.926     1.509     0.230   4.8
       535   1425.376   1601.074     5.227     0.529  -3.4
       536    575.433   1752.105     0.496     0.341   3.2
       537    186.403   1733.242     0.560     0.341 -35.7
       538   1070.452   1745.034     1.058     0.762 -56.4
       539    759.766   1740.688     0.663     0.575  52.5
       540   1937.668   1742.750     0.907     0.509  86.3
       541   1930.284   1698.695     0.534     0.521 -89.4
       542    112.149   1705.725     0.776     0.711 -17.2
       543    389.733   1732.637     0.934     0.350  67.8
       544   1667.769   1674.262     0.593     0.576   9.4
       545    276.204   1589.088     0.570     0.548 -19.7
       546   1183.541   1718.731     0.501     0.450 -13.5
       547   1258.864   1670.383     4.818     0.954 -15.0
       548    164.387   1727.507     1.690     0.235 -15.4
       549    668.680   1671.812     0.606     0.296  47.0
       550    985.075   1602.894     0.617     0.595 -42.0
       551   1577.318   1712.735     7.676     1.104  -3.4
       552   1285.782   1591.904     1.304     0.798   8.6
       553    487.954   1693.376     0.636     0.474 -21.6
       554   1495.588   1700.739     1.054     0.827  45.9
       555    758.406   1654.378     0.506     0.491  79.0
       556   1792.048   1691.192     0.495     0.415 -81.2
       557    186.614   1688.274     1.148     0.704 -86.1
       558   1101.230   1676.215     1.840     1.029  28.7
       559    908.802   1678.199     6.595     1.127 -62.9
       560   1694.518   1692.875     0.602     0.496  79.5
       561    709.786   1678.404     0.555     0.519  -1.4
       562    468.614   1659.207     0.907     0.804 -82.4
       563    106.862   1592.708     0.832     0.813  68.9
       564    796.200   1659.456    31.983     0.504  -5.9
       565    834.959   1675.615     1.603     0.696 -16.8
       566   1532.111   1663.460     0.777     0.758 -68.1
       567   1900.296   1665.538     1.607     0.858 -42.6
       568   1162.723   1671.308     0.522     0.513 -78.0
       569    932.818   1635.089     1.169     0.546  81.7
       570   1981.991   1635.600     0.589     0.564 -28.9
       571   1257.219   1637.595     0.635     0.623 -20.4
       572    261.707   1637.413     1.366     0.840  75.7
       573    554.088   1667.608     1.344     0.926 -28.1
       574   1892.384   1655.978     0.729     0.605 -55.7
       575   1395.263   1603.257     0.691     0.656  72.3
       576    550.000   1640.835     0.488     0.289  90.0
       577   1337.386   1632.686     3.439     0.512  72.1
       578    170.623   1656.334     1.162     0.326 -66.8
       579     13.502   1641.991     0.500     0.377   1.1
       580   1291.214   1603.284     0.714     0.697  67.6
       581    678.916   1651.306     1.783     0.428 -70.4
       582   1597.985   1595.782     0.640     0.598  54.8
       583   1954.434   1626.912     0.507     0.490 -18.7
       584   1332.509   1637.601     0.698     0.474 -20.1
       585     26.808   1640.173     0.541     0.532 -44.0
       586     95.292   1615.456     9.172     2.240  78.2
       587   1505.922   1638.948     3.234     0.931 -35.5
       588    104.750   1637.386     2.100     1.460   3.5
       589   1528.985   1623.198     0.993     0.760  -2.0
       590    584.008   1630.182     3.253     0.880   2.1
       591    952.737   1626.540     0.591     0.437  83.1
       592    815.309   1579.684     0.812     0.740  37.0
       593   1853.703   1594.286    16.899     1.656  48.2
       594   1969.295   1621.826     0.647     0.612 -60.9
       595     68.309   1618.302     2.821     0.859 -12.7
       596    608.891   1613.654     0.491     0.470 -76.7
       597   2008.112   1606.244     1.919     0.368  63.3
       598    150.527   1605.255     9.185     0.487 -12.5
       599   1903.448   1539.740     0.896     0.825 -37.6
       600   1635.598   1609.349     7.867     0.729  -6.1
       601    681.399   1452.438     3.500     2.875 -88.7
       602   1149.980   1549.345     0.548     0.534  68.4
       603     35.399   1509.869     2.941     0.493  65.2
       604   1186.415   1594.978     1.660     0.940  62.9
       605   1631.314   1594.227     1.029     0.535  87.6
       606    308.893   1577.656    13.733     0.844 -32.6
       607      2.695   1574.960     0.667     0.646 -58.2
       608   1165.506   1580.163     1.030     0.905 -39.3
       609   1419.382   1581.891     0.489     0.307   8.1
       610   1466.083   1579.766     0.881     0.751 -42.2
       611   1443.034   1555.499     1.114     0.492 -70.1
       612    570.414   1498.229     0.592     0.576 -86.4
       613    814.086   1573.932     0.706     0.679 -43.1
       614   1221.288   1496.496     4.611     0.867  34.0
       615     66.380   1583.767     1.717     0.797 -22.8
       616    791.121   1581.002     1.188     0.554   0.0
       617   1810.964   1501.109     0.485     0.405  27.5
       618    512.911   1499.477     0.518     0.461 -85.4
       619    355.612   1550.461     6.406     4.573  48.1
       620    893.359   1500.230     0.482     0.419 -10.2
       621    289.061   1565.185     1.126     0.529  77.1
       622    662.115   1568.530     1.507     0.856 -67.8
       623   1621.788   1554.669     4.575     0.894 -81.4
       624    687.988   1508.301     8.938     0.504 -19.5
       625   1195.709   1561.139     2.842     1.079 -76.6
       626    120.125   1354.996     0.704     0.678  10.7
       627    881.448   1559.923     0.727     0.716  83.8
       628   1382.586   1528.264    42.083     4.355 -24.8
       629     93.701   1509.447     4.570     2.619  42.9
       630    529.814   1541.219     0.538     0.524  80.8
       631    815.656   1530.236    17.705     0.502   7.6
       632   1481.460   1483.767     0.795     0.764 -80.0
       633   1055.733   1547.397     0.489     0.467 -87.4
       634     32.958   1528.843     7.622     0.522  16.7
       635     12.613   1536.673     2.972     1.098 -72.2
       636    941.317   1533.729     0.488     0.478  77.1
       637    118.355   1534.977     1.449     1.124 -30.3
       638   1902.156   1520.421     7.355     0.799 -87.3
       639    161.656   1530.122     0.622     0.604  52.4
       640    483.728   1452.687     6.656     1.217  65.5
       641   1957.804   1513.665     0.591     0.547  10.2
       642    665.380   1524.113     0.586     0.579   9.7
       643    943.313   1514.668     0.558     0.538 -88.4
       644    715.655   1519.770     0.607     0.601  49.7
       645   1320.420   1511.298    17.053     0.493 -24.4
       646    759.699   1517.644     0.743     0.720  40.4
       647    402.067   1461.087     0.424     0.359  54.7
       648    468.885   1502.192     0.890     0.787  40.5
       649    286.926   1501.288     1.015     0.721   6.1
       650   1829.140   1501.349     1.682     0.534 -32.9
       651    889.225   1485.522     4.619     2.351   4.9
       652    388.481   1488.809     0.958     0.790  60.5
       653    985.984   1482.984     0.549     0.487 -89.8
       654   1159.365   1443.539     8.062     1.246 -65.0
       655   1967.956   1483.074     0.304     0.280  76.3
       656   1665.997   1438.752     8.491     2.091   7.9
       657    572.961   1479.874     4.952     1.475  81.1
       658   1604.237   1451.555     0.497     0.425 -85.5
       659    283.015   1415.331     0.882     0.772 -56.0
       660    333.720   1405.502     0.507     0.500  10.8
       661    174.890   1317.161     3.944     0.567  14.5
       662    881.400   1464.197     2.582     0.497  76.7
       663   1345.669   1465.742     0.809     0.804 -36.8
       664     93.509   1468.847     1.636     0.766  34.7
       665      5.171   1384.418     5.109     0.662  85.1
       666    249.750   1881.446     0.817     0.774  50.7
       667   1785.133   1464.973     1.346     0.598 -47.0
       668    407.583   1445.139     7.699     0.911  12.1
       669    792.831   1375.393     0.886     0.720  43.7
       670    217.012   1317.011     2.673     1.509 -25.9
       671    365.448   1455.672     0.499     0.468 -12.1
       672   1998.800   1449.357     0.722     0.398  86.5
       673   1670.675   1397.034     6.268     0.475  21.4
       674   1498.539   1447.196     0.659     0.627 -70.7
       675   1978.802   1392.279     2.378     1.120 -38.1
       676   1574.457   1322.167     1.222     0.887 -11.3
       677   1793.563   1441.329     1.791     0.563  43.6
       678    282.427   1443.031     1.309     0.936 -66.5
       679   1160.554   1423.164     2.920     0.971   1.9
       680   2026.697   1403.709     3.545     0.712   5.0
       681    481.025   1398.128     4.887     0.525  15.8
       682    303.107   1417.992     0.956     0.832 -41.9
       683    513.248   1438.992     1.567     0.620  22.6
       684     42.060   1427.354     4.048     0.593 -79.4
       685    496.932   1431.748     3.616     0.856   3.5
       686    467.448   1429.788     0.810     0.687 -67.4
       687    896.075   1410.458     0.508     0.424 -70.9
       688   1060.073   1418.301     2.152     0.716 -77.9
       689   1938.171   1422.942     0.656     0.546 -59.2
       690     67.850   1403.839     7.300     0.554  32.9
       691    853.071   1398.002     0.672     0.641  17.8
       692   1417.110   1353.821     0.543     0.531 -73.6
       693   1782.029   1392.714     3.027     0.807 -32.0
       694   1429.245   1319.629     3.760     1.203  68.2
       695   1619.983   1404.131     0.768     0.725  60.2
       696    453.943   1395.578     0.997     0.770 -24.0
       697   1198.292   1392.754     0.571     0.553  70.2
       698   1765.649   1375.276     0.569     0.540 -36.0
       699    794.809   1387.132     3.752     0.543 -13.8
       700    761.736   1387.704     0.738     0.702  59.9
       701   1273.519   1349.833     1.423     0.583  47.5
       702    248.968   1769.497     0.739     0.722  54.1
       703   1080.386   1316.462    11.172     0.556  -9.8
       704   1388.841   1358.567     6.314     1.483  79.8
       705   1406.028   1368.986     0.595     0.560  61.7
       706    685.275   1336.404     0.816     0.563  84.7
       707    980.739   1349.833     1.425     0.419 -81.1
       708    104.830   1367.744     0.436     0.376 -87.8
       709    873.595   1368.089     3.294     0.567  89.9
       710   1373.998   1330.312     3.807     0.921  29.7
       711   1009.552   1365.838     2.716     1.087  10.9
       712   1579.538   1335.320     1.420     0.628 -15.3
       713   1738.729   1339.405     0.602     0.585  82.2
       714   1822.379   1360.744     0.749     0.701  67.7
       715    238.097   1354.591     2.228     0.721  81.7
       716   1834.273   1329.286     0.848     0.830 -37.2
       717    193.943   1358.595     0.644     0.636   1.6
       718   1213.993   1346.302     0.741     0.714  58.7
       719    770.429   1348.455     0.657     0.636  76.7
       720    636.655   1294.800     0.495     0.464 -53.5
       721      1.329   1327.053     6.162     0.533 -87.2
       722      1.805   1289.881     3.333     0.610 -83.8
       723   1646.886   1342.653     0.619     0.609   2.2
       724   1480.258   1336.779     0.747     0.706 -58.0
       725   1298.380   1288.528     4.333     0.498  59.2
       726   1401.380   1286.182     0.577     0.570 -20.4
       727   1687.006   1329.275     1.212     1.122  17.2
       728    360.931   1329.365     1.306     0.773  41.3
       729   1097.360   1328.725     0.514     0.501 -81.3
       730    179.203   1325.688     0.582     0.549  47.2
       731    955.992   1308.607     0.844     0.749  55.4
       732     88.098   1300.296    10.903     0.623  29.8
       733    842.341   1297.179     0.490     0.456   4.2
       734    930.234   1307.868     1.507     0.712  22.0
       735   1461.855   1296.815     0.573     0.545 -87.1
       736    393.796   1304.163     0.949     0.861 -21.2
       737   1714.930   1252.340     0.474     0.445 -82.7
       738    643.768   1296.418     2.256     0.483 -56.9
       739   2035.175   1264.867     5.281     2.069 -13.3
       740   1753.608   1287.642     0.672     0.660  85.6
       741   1663.487   1222.526     5.373     1.133  31.9
       742   1708.031   1274.040     0.335     0.330  27.0
       743    386.434   1868.189     8.950     0.520  47.3
       744    237.165   1278.684     2.426     0.660 -77.7
       745    876.060   1283.569     0.731     0.698  46.0
       746   1554.429   1265.424     2.094     0.997 -69.8
       747    323.290   1273.916     0.747     0.697  62.2
       748    317.317   1270.532     0.499     0.465  86.4
       749   1410.464   1275.536     0.502     0.496  45.0
       750    123.592   1276.130     0.742     0.715  73.3
       751    908.204   1265.101     0.807     0.790  39.7
       752   1121.175   1228.334     7.536     0.435  27.3
       753    607.324   1249.223     2.481     0.591   8.5
       754    808.106   1260.520     0.886     0.757 -61.9
       755   1316.241   1773.617     2.344     0.732 -44.7
       756   1002.091   1252.650     0.741     0.675 -89.2
       757   1634.368   1917.357     5.643     0.513  -3.3
       758   1385.328   1792.386     0.641     0.585  72.2
       759    667.311   1235.452     0.862     0.783  61.9
       760    324.776   1225.004     5.923     0.962 -33.0
       761      5.969   1239.305     0.543     0.336  89.9
       762   1845.281   1843.233     5.814     1.023 -49.8
       763   1533.981   1198.750     0.433     0.197  88.7
       764    955.152   1231.145     0.794     0.365  -5.5
       765    920.913   1216.987     0.496     0.488 -81.2
       766    766.513   1799.000     6.243     1.300  31.3
       767   1940.015   1833.939     0.451     0.383  66.4
       768   1385.568   1196.833     0.674     0.652  46.7
       769   1537.251   1213.843     1.917     0.720 -18.6
       770    481.682   1847.944     0.557     0.533 -89.4
       771    558.846   1805.605     0.978     0.844  13.7
       772    981.130   1209.913     1.488     0.906  68.3
       773    239.825   1205.466     0.505     0.372 -76.4
       774    685.409   1216.304     0.612     0.546 -86.1
       775    182.748   1198.352     0.717     0.706 -26.8
       776    262.324   1199.746     0.698     0.660 -38.2
       777   1133.308   1789.074     0.774     0.759  45.3
       778   1711.388   1883.190     3.059     0.767  30.3
       779    137.187   1870.188     0.668     0.652 -45.6
       780    164.962   1563.146     6.636     0.852  24.7
       781   1289.383   1755.358     4.986     0.635   5.5
       782   1612.181   1835.935     4.908     2.320  71.9
       783    834.203   1857.329    10.604     0.977 -32.4
       784    414.217   1819.119     0.796     0.696  -3.7
       785   1578.108   1790.762    18.218     3.074  30.5
       786   1882.625   1809.597     3.096     0.854 -11.8
       787   1542.463   1846.593     1.908     0.486  86.2
       788    231.457   1829.062     0.575     0.546 -39.3
       789   1930.007   1843.766     1.222     0.851  85.2
       790    473.188   1823.901     1.256     0.794  67.6
       791    698.562   1819.906     0.496     0.292   0.1
       792    880.144   1786.620     2.959     0.559   8.3
       793   1175.995   1898.192     0.488     0.319  89.6
       794     66.401   1826.824     3.249     0.547  18.6
       795    399.510   1964.441     0.755     0.729  64.1
       796   1393.211   1839.479     5.186     0.687  53.4
       797    645.048   1880.062     0.756     0.744  -7.0
       798   1192.087   1852.388     0.746     0.717  16.7
       799   1285.019   1835.729     4.578     0.791  85.5
       800   1050.840   1853.758     0.731     0.710  27.2
       801    170.751   1834.110     0.760     0.710  50.5
       802    136.166   1896.125     3.123     0.506  18.9
       803   1272.350   2008.129     4.438     0.586 -16.8
       804    734.084   1885.881     1.915     0.525 -72.5
       805   1531.502   1895.386     0.574     0.529  50.1
       806   1188.925   1913.241     0.457     0.347 -87.9
       807   1602.254   1848.632     0.644     0.632  -7.6
       808    948.610   1924.010     0.555     0.447  15.9
       809    335.283   1872.594     0.999     0.835 -74.0
       810    520.871   1932.316     0.475     0.465  -5.0
       811   1109.121   1962.300     3.087     0.512   5.9
       812    287.528   1788.400     4.086     0.715 -88.1
       813   1416.358   1902.050     0.553     0.294   3.8
       814    102.076   1950.130     1.697     0.510 -44.8
       815   1368.218   1853.161     5.986     1.611  66.1
       816   1076.066   2020.805     0.582     0.556  31.2
       817    977.233   1974.996     0.591     0.544 -38.1
       818   1654.305   1807.490     3.809     0.724  20.3
       819    425.038   1904.876     0.438     0.347  88.4
       820   1587.534   2039.472     0.767     0.557  27.5
       821    661.336   1964.683     0.702     0.550 -17.8
       822    782.475   1904.413     0.697     0.665  11.8
       823   1314.849   1949.810     4.737     0.502  48.9
       824   1696.726   1948.660     0.676     0.511 -46.0
       825   1914.629   2026.122     0.760     0.733  60.5
       826   1908.991   2025.229     0.533     0.509  70.2
       827   1746.693   1831.896     1.643     0.845 -46.4
       828    126.594   1909.500     8.319     0.518  -8.0
       829    863.237   2021.722     0.572     0.507 -22.9
       830   1197.063   1898.895     9.339     1.685  80.3
       831      6.229   1951.404     1.237     0.995  67.6
       832   1945.254   1963.864     0.958     0.775  -2.0
       833    597.975   1812.845     0.463     0.329  88.0
       834   1686.596   1800.078     2.594     0.621 -29.5
       835   1816.439   1913.394     2.792     0.796  -6.8
       836    596.146   1946.381     0.486     0.415  86.7
       837    620.342   1785.910     0.755     0.750  39.2
       838    233.848   2039.107     0.642     0.613 -69.7
       839    860.691   1910.640     1.620     0.820 -86.4
       840    462.366   1987.379     0.612     0.564 -80.2
       841   1338.164   1929.770     3.786     0.649 -45.4
       842    525.029   1971.429     8.867     0.536 -55.5
       843   1007.507   1944.532     2.051     0.624 -41.0
       844     53.424   1943.098     1.405     0.710  61.9
       845   1478.201   1882.297     0.724     0.691  80.4
       846    715.992   2014.473    30.120     0.993  12.9
       847   1496.567   1956.350     2.835     1.407   9.6
       848    740.410   1970.437     4.966     1.057  75.1
       849    653.070   1977.673     0.694     0.671 -88.1
       850    585.924   1978.402     0.559     0.359  58.4
       851    627.484   2032.880     8.960     0.452 -43.9
       852    393.503   1967.656     0.865     0.776 -10.3
       853    842.388   1991.578     0.815     0.749 -46.9
       854   1169.625   1806.122     1.365     0.694 -49.1
       855    763.547   1978.350     1.512     0.991 -29.4
       856    258.527   1972.614     1.041     0.647 -38.4
       857   1926.512   1975.080     3.951     0.521  14.0
       858    932.604   1946.747    10.411     1.960  58.6
       859   1143.549   2038.535     0.680     0.670 -57.3
       860     10.849   1996.897     2.767     1.028   4.2
       861   1250.992   1996.645     0.735     0.625 -30.6
       862   1372.696   2006.521     6.266     0.537   6.8
       863    351.352   2011.742     0.798     0.547  81.2
       864   1457.769   1987.084    10.288     4.311  48.7
       865   1896.908   2001.555     4.307     0.610  32.4
       866   1240.353   2020.771     6.040     3.164  64.8
