#   1 NUMBER                 Running object number                                     
#   2 X_IMAGE                Object position along x                                    [pixel]
#   3 Y_IMAGE                Object position along y                                    [pixel]
#   4 A_IMAGE                Profile RMS along major axis                               [pixel]
#   5 B_IMAGE                Profile RMS along minor axis                               [pixel]
#   6 THETA_IMAGE            Position angle (CCW/x)                                     [deg]
         1   1526.388     24.821     4.219     0.553  89.8
         2   1540.411     15.918     4.228     0.553  30.1
         3   1394.226      8.379     1.801     0.815 -30.9
         4    854.897      8.275     2.071     0.665  34.1
         5   1462.142      7.681     0.536     0.415 -86.5
         6    833.211      6.683     3.124     0.288  51.1
         7   1526.782      4.201     1.197     0.793 -41.4
         8     38.284      5.287     0.868     0.359  69.8
         9    502.366      3.867     0.824     0.333 -62.5
        10   1865.896      1.000   173.340     0.289   0.0
        11    471.585     37.596     3.054     0.714 -73.7
        12     25.226     16.692     1.381     0.697  56.0
        13     28.491      9.486     1.253     0.198  21.8
        14    267.420     68.088     7.338     0.493  89.8
        15    467.120    158.324    39.317     0.572  26.1
        16   1697.793     23.345     1.539     0.877  26.0
        17   1810.477     21.447     1.128     0.619  32.9
        18   1833.156     20.666     1.177     0.772  10.8
        19   1685.084     45.240     7.895     0.537  22.0
        20    761.208    187.760    23.928     6.707 -86.8
        21    288.346     35.384     1.303     0.902 -47.2
        22    959.315     50.070     8.140     0.575 -19.1
        23   1694.126     33.072     1.333     0.509 -85.6
        24    794.869     35.821     0.718     0.667  67.6
        25    692.608     32.027     0.685     0.495 -86.0
        26      2.844     31.708     1.105     0.686  23.4
        27   1526.280     50.982     2.419     0.584  89.2
        28   1639.829     50.129     1.996     0.446  46.0
        29   2028.110     43.938     0.646     0.624   1.9
        30    142.319     92.699     6.086     0.896  61.0
        31    343.053     50.467     0.635     0.608  83.6
        32   1774.320     46.739     0.470     0.436  18.6
        33    665.758     91.987     6.865     2.839  -2.9
        34   1840.976     55.064     0.390     0.352  86.9
        35    518.040     62.560     0.637     0.594 -59.1
        36    864.624     76.422     4.164     0.659  30.7
        37   1677.734    108.334    10.403     1.571  33.5
        38   1012.023    174.564    14.352     4.638  88.9
        39   1415.202    100.134     5.164     0.688 -70.1
        40   1487.813     68.670     0.747     0.610 -34.4
        41    615.861     90.187     8.485     0.510  18.9
        42    717.086     81.124     0.938     0.856  81.6
        43   1587.804     82.120     9.828     0.518   3.7
        44    328.479    102.748     3.738     0.824 -67.9
        45    778.715     92.877     2.344     0.996 -50.0
        46    428.055     91.200     1.020     0.764  87.9
        47   1620.553     78.428     0.514     0.477 -43.1
        48    121.747     86.118     0.491     0.434  82.7
        49     55.730     95.034     2.738     0.864  -4.6
        50    541.069     88.007     0.405     0.386 -71.8
        51     87.982     93.106     0.633     0.615  27.8
        52   1225.068     89.537     0.504     0.242 -80.7
        53    836.093     98.375     0.547     0.546 -67.4
        54   1921.118     99.280     0.699     0.642  -2.2
        55    819.713     96.848     0.488     0.474  46.1
        56   1975.204    109.602     1.288     0.704 -83.8
        57      1.224    128.048     2.011     0.421  86.6
        58    270.000    114.488     1.170     0.289  90.0
        59      4.063    114.796     0.647     0.595 -81.8
        60   1311.394    142.846     3.993     2.158  30.9
        61   1526.239    120.568     1.139     0.415  84.7
        62    270.091    130.095     1.908     0.283 -88.4
        63    270.000    123.297     1.123     0.289  90.0
        64    323.694    126.306     0.723     0.697 -48.3
        65   1207.143    132.543     0.501     0.381 -89.9
        66    651.935    147.885     0.984     0.790 -60.2
        67   1496.282    137.870     0.452     0.365   8.9
        68    532.312    145.671     3.564     0.646   6.4
        69    807.316    144.258     0.617     0.433   8.4
        70   1962.282    194.948     5.396     0.871 -72.1
        71   1004.710    159.849     0.722     0.547  85.3
        72    348.598    165.197     5.966     1.009   0.9
        73    131.341    171.100     1.842     0.745  78.3
        74   1803.734    165.929     0.867     0.661  72.0
        75   1404.602    167.435     3.446     0.697   6.7
        76    572.604    162.588     0.669     0.643  10.3
        77    601.708    169.606     1.626     0.461  -7.5
        78   1776.486    240.521    11.125     2.695 -73.0
        79    705.975    171.372     0.643     0.572  30.1
        80    371.420    169.037     0.666     0.631  38.0
        81   1638.399    206.076     4.532     0.494  71.3
        82   1932.782    199.270     3.119     0.554  88.2
        83    570.584    179.320     1.177     0.353 -59.3
        84   1979.513    242.523    10.042     0.570  56.9
        85    526.933    177.759     0.446     0.346  87.6
        86    609.091    204.099     2.631     0.601  66.0
        87   1109.549    283.743    13.296     0.613 -62.3
        88    270.000    205.611     2.927     0.289  90.0
        89   1838.362    193.856     1.724     0.676 -12.2
        90   2020.183    189.299     0.458     0.387 -89.3
        91   1898.394    201.712    10.995     0.511  -4.4
        92   1681.311    225.483     3.112     0.718 -86.3
        93   1637.021    253.729     8.374     1.051  86.1
        94   2032.170    212.464     2.454     0.787 -37.1
        95   1962.923    207.901     1.944     0.815  -6.0
        96    788.165    204.858     0.496     0.484 -71.0
        97   1631.648    267.846     6.798     0.871  77.7
        98    918.750    295.749    62.327     0.714  -8.4
        99    626.996    217.488     0.712     0.685 -88.3
       100   1163.005    766.570    63.650     0.068  90.0
       101   1389.347    233.305     2.059     1.040 -57.7
       102     21.585    235.671     2.133     0.579 -54.1
       103   1738.688    225.388     0.681     0.667 -87.7
       104   1466.735    222.366     0.501     0.440  82.2
       105     58.097    222.671     0.527     0.376  77.9
       106   1495.868    229.025     0.484     0.363  64.0
       107   1243.999    240.924     2.539     0.517 -20.4
       108    178.701    239.963     0.707     0.658  62.3
       109   1918.738    236.965     0.466     0.418   0.9
       110   1011.237    242.504     0.659     0.654  -5.4
       111   1811.178    238.695     0.461     0.382 -84.5
       112    500.493    246.732     1.003     0.773  -0.4
       113   1445.146    239.328     0.473     0.349  79.4
       114    380.572    279.378     4.076     0.523 -69.3
       115   1941.513    254.883     1.007     0.776 -86.5
       116    475.103    248.307     0.599     0.576  89.5
       117    673.354    250.446     0.723     0.628  30.8
       118    560.079    278.093     6.351     0.950 -33.8
       119    992.814    255.592     0.686     0.632 -44.9
       120   1215.862    283.251    14.386     1.703  16.0
       121   1863.860    260.764     0.802     0.629  71.0
       122   1100.860    273.615     2.204     0.668 -65.3
       123    106.434    260.989     0.497     0.295  -5.8
       124    371.124    258.248     0.432     0.330  89.8
       125    315.752    263.143     0.432     0.356   5.8
       126   1843.847    268.197     2.520     0.546 -10.0
       127   1721.533    293.151     5.114     0.867 -23.6
       128    876.580    268.587     0.541     0.515 -46.3
       129   1602.025    314.145     6.181     0.575  61.5
       130   1374.992    347.118    11.372     0.590  55.3
       131   1063.963    277.996     0.355     0.343  20.1
       132   1616.931    277.387     0.487     0.254  88.1
       133   1808.298    282.339     0.514     0.480  37.3
       134    622.042    304.559     2.747     0.414  84.5
       135   1706.052    301.787     5.427     1.080  12.3
       136   1902.835    298.402     1.911     0.730 -44.4
       137   2000.610    367.589     8.816     0.820  70.7
       138   1679.363    318.801     3.672     0.738  52.1
       139   1913.569    307.124     2.011     1.468  17.7
       140   1246.000    298.989     0.389     0.373  -0.0
       141     86.315    302.421     0.668     0.600 -48.9
       142    741.193    301.044     0.674     0.431 -12.4
       143    450.379    304.337     0.611     0.599 -42.0
       144    955.139    302.891     0.571     0.537 -90.0
       145   1698.253    311.343     1.003     0.784  71.5
       146    649.754    321.215     0.850     0.805 -85.8
       147    139.834    322.085     0.784     0.762  38.4
       148    764.354    462.854    22.051     1.738 -52.7
       149   1040.381    322.075     0.638     0.622  72.8
       150      4.155    333.662     1.230     0.798 -74.0
       151    547.355    326.560     0.663     0.636 -83.5
       152    662.335    324.256     0.601     0.582  13.8
       153   1432.057    413.324    11.807    10.018  22.7
       154   1595.886    334.172     1.491     0.975 -44.3
       155   1096.070    339.438     1.903     0.966 -42.3
       156    749.216    341.233     1.552     0.738  64.7
       157    532.867    341.894     1.453     0.999 -49.3
       158     22.634    329.427     0.516     0.459 -51.7
       159   1049.851    356.684     7.870     2.993  -2.5
       160    861.817    338.553     0.820     0.789   1.4
       161    885.649    332.416     0.499     0.471 -62.5
       162   1199.086    338.904     0.501     0.393 -34.6
       163   1712.794    378.737     4.790     0.498  74.3
       164    921.412    380.739     8.002     0.919  32.7
       165   1924.358    365.416     2.035     0.478  88.9
       166   1077.246    353.116     0.751     0.739 -75.9
       167      6.024    522.736    10.575     1.251 -87.2
       168   1640.368    359.367     1.742     0.501 -39.3
       169    491.571    403.756     8.137     1.071  45.1
       170   1324.896    366.957     0.669     0.612 -63.3
       171    335.810    364.686     0.784     0.567 -54.7
       172   1870.699    365.135     0.659     0.648  17.3
       173   1978.356    437.283     9.470     1.803  75.8
       174    410.790    367.321     0.494     0.471  88.1
       175    528.739    410.584     6.601     0.508  36.0
       176     13.310    402.434     7.842     0.467  26.3
       177   1077.080    384.986     0.851     0.726  70.8
       178   1570.839    386.232     0.702     0.672 -53.3
       179    737.588    383.354     0.503     0.466 -33.7
       180   1801.900    458.411    11.401     0.530 -44.2
       181   1374.680    426.330     7.379     0.521  40.2
       182     67.549    438.738     7.488     0.673 -47.7
       183   1159.164    395.792     0.716     0.672  30.4
       184   1291.919    412.796     1.630     0.602 -72.1
       185   1179.826    401.565     0.507     0.439  74.6
       186   1026.285    535.006    15.965     1.185  58.3
       187     82.524    431.396     2.274     0.629  80.7
       188   1268.365    421.990     1.294     0.750 -55.9
       189   1183.850    417.243     0.630     0.567  28.2
       190    712.196    414.208     0.439     0.360 -48.2
       191    650.778    439.412     3.440     0.569 -34.6
       192    794.901    427.209     0.837     0.414  62.2
       193    831.063    425.937     0.541     0.242  89.0
       194    163.658    433.157     1.542     0.659  14.1
       195   1034.040    428.825     0.881     0.315  33.8
       196    517.750    434.655     0.759     0.742 -65.7
       197    511.686    429.940     0.494     0.438  -7.6
       198   1104.952    434.019     0.593     0.560  54.1
       199   1601.673    470.768     3.573     0.853 -89.3
       200    533.303    440.472     0.721     0.699  85.1
       201    288.356    440.382     0.754     0.580  23.6
       202   1119.388    441.872     0.567     0.478 -72.0
       203   1555.681    459.392     1.843     0.651  72.5
       204   1031.438    455.466     0.781     0.758  62.8
       205    182.078    453.388     0.809     0.777   2.1
       206   1862.114    452.347     0.520     0.476  46.2
       207    885.739    459.373     0.637     0.628 -85.2
       208   1127.219    468.298     6.069     0.528  -6.0
       209   1478.862    494.334     3.203     2.006  73.5
       210   1173.146    474.855     1.498     0.880  22.1
       211   1085.275    464.691     0.470     0.438  59.9
       212    951.862    482.990     0.808     0.727 -19.1
       213   1154.573    504.045     4.431     1.250 -37.0
       214   1079.313    477.839     0.557     0.535  41.7
       215   1954.744    484.239     0.929     0.506  87.4
       216   1088.454    495.003     2.586     0.647  16.6
       217   1924.334    479.372     0.591     0.327  46.3
       218   1906.541    488.193     0.933     0.785 -74.1
       219    765.070    488.285     0.662     0.593  71.0
       220   1188.094    485.972     0.612     0.607 -14.7
       221    522.502    502.010     0.882     0.851 -67.6
       222   1502.844    499.660     0.712     0.634  89.2
       223    411.778    500.620     0.739     0.705 -68.9
       224   1761.886    503.299     2.512     0.622   4.0
       225   1509.773    503.135     0.547     0.522 -59.7
       226   1363.764    507.642     0.684     0.674  35.8
       227     80.596    605.476    18.527     0.917 -38.4
       228    990.432    524.234     1.512     0.826 -37.4
       229   1292.941    515.064     0.335     0.327 -62.5
       230    797.209    512.336     0.472     0.407 -89.4
       231   1444.718    515.828     0.589     0.580  22.9
       232    480.757    526.406     2.054     0.703 -25.2
       233     79.737    551.591     4.550     0.529  57.2
       234   1167.612    523.891     1.029     0.749 -40.2
       235   1981.098    530.636     2.406     0.564 -16.3
       236   1178.423    528.234     0.598     0.539 -74.1
       237   1764.637    583.248     7.016     1.420 -77.7
       238   1634.728    528.472     0.681     0.676  34.4
       239   1639.302    525.568     0.496     0.459  83.4
       240   1030.850    525.082     0.357     0.275  -1.8
       241    426.923    551.258     6.221     0.921  16.8
       242    311.655    544.572     1.421     0.758  76.7
       243   1646.142    581.288     6.094     1.052  40.4
       244    565.519    532.993     0.605     0.550  86.5
       245   1087.344    544.950     6.924     0.940   2.2
       246    374.555    564.179     2.954     0.997 -72.1
       247    317.597    555.870    18.626     0.849  -2.3
       248     20.405    594.828    15.198     0.553 -23.6
       249   1064.240    553.054     0.957     0.763 -68.9
       250   1721.395    556.562     1.037     0.571  86.0
       251    573.754    548.961     0.513     0.490 -59.2
       252   1413.275    579.180     7.199     0.942 -30.9
       253    620.788    548.129     0.421     0.320  21.5
       254    473.000    552.964     0.587     0.488  90.0
       255    366.607    556.923     1.228     0.609 -10.8
       256    988.478    554.872     0.749     0.338  55.1
       257   1744.488    556.122     0.607     0.600 -38.0
       258    644.492    566.228     0.932     0.834  13.2
       259   1422.266    564.781     1.025     0.715 -20.0
       260   1861.162    566.921     0.606     0.573  67.2
       261   1009.831    564.877     0.445     0.414 -74.9
       262    367.071    564.987     0.501     0.458  56.8
       263    463.691    598.046     6.285     0.965 -34.1
       264   1861.138    579.485     8.932     0.626   4.7
       265   1589.179    578.082     0.711     0.567  42.0
       266    445.906    578.774     0.419     0.291 -86.9
       267    758.513    588.111     0.883     0.643 -29.4
       268    585.648    586.155     0.518     0.337  23.0
       269    545.517    591.879     1.662     0.574  -6.7
       270    733.483    590.838     0.542     0.525  14.1
       271    748.957    591.801     0.451     0.394 -89.4
       272   1510.039    650.187     6.460     0.553 -60.2
       273    717.957    599.399     0.496     0.225  83.9
       274   1368.563    603.727     0.759     0.728 -29.9
       275   1339.104    627.853     2.758     1.027 -56.3
       276   1695.630    608.728     1.509     0.463  21.2
       277    475.800    625.388     2.995     0.949  32.0
       278   1457.054    616.644     1.111     0.504  52.5
       279   1841.213    613.357     0.571     0.471  32.5
       280     65.188    626.763     1.612     0.703  59.2
       281    732.469    613.574     0.503     0.491  34.0
       282    422.308    622.551     0.838     0.772   8.6
       283   2031.232    624.217     0.950     0.799 -34.1
       284   1586.942    684.714     9.410     1.088 -73.9
       285    446.807    635.868     0.694     0.662  45.8
       286   1609.202    637.745     2.327     0.660   7.2
       287    127.597    637.174     0.667     0.652  80.0
       288   1468.722    636.720     0.531     0.528  35.0
       289   1068.726    653.714     3.704     0.543  23.6
       290   1363.933    656.468     1.090     0.819 -88.8
       291   1467.698    654.933     1.054     0.629 -79.6
       292    207.454    670.289    12.138     1.171  -2.6
       293   1708.911    654.879     0.554     0.544 -50.5
       294   1406.092    664.143     0.975     0.807   4.6
       295   1680.522    664.991     0.861     0.765  35.7
       296   1079.448    673.836     0.641     0.619  31.2
       297   1646.102    690.669     7.939     0.586 -11.9
       298    375.185    705.120     4.444     0.564 -54.4
       299    586.398    683.888     0.729     0.686 -57.3
       300   1251.258    678.903     0.661     0.638   4.6
       301    482.944    678.748     0.517     0.490  74.1
       302   1793.218    741.081    24.318     2.990  14.2
       303    968.095    682.334     0.638     0.608 -43.3
       304    497.235    706.698     4.514     0.516 -39.1
       305    973.664    712.091     5.322     0.503 -40.0
       306     64.313    686.164     0.467     0.436 -18.8
       307    507.927    690.947     0.641     0.639  29.2
       308    246.974    689.811     0.425     0.262 -87.5
       309   1078.278    698.154     0.614     0.594 -64.9
       310    178.902    705.787     2.478     0.549 -13.6
       311    956.050    707.689     1.513     0.713  43.3
       312   1772.585    708.569     0.530     0.455  46.0
       313    302.884    712.409     0.582     0.458  31.6
       314    673.445    720.755     1.683     0.776 -27.5
       315    464.414    729.429     5.259     0.491  12.0
       316    627.455    726.154     0.775     0.698  72.6
       317   1006.819    797.768    20.472     0.531 -26.3
       318    161.639    733.342     0.738     0.720  60.1
       319   1097.288    735.306     0.712     0.688  56.3
       320    644.579    740.873     0.976     0.680  37.8
       321   1004.196    739.763     0.617     0.605 -65.8
       322    281.573    736.544     0.534     0.456  46.3
       323    820.109    748.153     2.530     0.736 -18.3
       324    217.099    747.527     0.845     0.820  42.6
       325   1997.534    756.152     7.187     0.556  -2.2
       326    361.856    756.962     0.935     0.338 -83.7
       327   1790.802    757.628     1.131     0.536 -50.7
       328    708.289    757.827     0.791     0.781 -85.9
       329   1768.026    761.132     0.943     0.541  11.4
       330   1192.185    843.125    10.004     0.739  82.3
       331   2023.427    806.303     7.327     2.502 -45.8
       332    559.481    765.940     0.673     0.537  44.0
       333   1955.828    782.125     2.709     0.767  33.4
       334    337.433    773.980     0.496     0.228   2.5
       335   1385.266    780.182     8.601     0.487  -6.1
       336   1989.011    776.344     0.502     0.369  88.4
       337   1947.243    783.953     0.782     0.538  58.6
       338   1689.654    785.350     1.430     0.609  -9.0
       339    567.881    782.705     0.456     0.324 -86.8
       340   1786.844    792.948     0.920     0.854  62.5
       341    955.064    790.549     0.668     0.603 -51.2
       342     70.867    804.702     2.454     0.985 -65.5
       343    861.621    795.950     1.255     0.868  15.4
       344    940.056    858.372     8.063     0.523 -69.6
       345    768.036    795.844     0.390     0.304  88.8
       346   1998.187    812.919     4.197     1.345  13.9
       347   1848.928    802.722     0.768     0.642  58.2
       348    408.705    795.415     0.545     0.392 -52.0
       349    234.865    796.208     0.406     0.342  85.1
       350   1213.984    806.294     0.768     0.570  47.7
       351   1155.898    823.075     1.708     0.893 -67.4
       352   1545.397    813.497     0.906     0.808 -23.6
       353   1817.360    932.989    20.494     2.217 -54.0
       354   1253.914    813.442     4.812     0.526   3.8
       355   1409.625    840.397    14.788     0.508 -13.2
       356   1631.160    819.909     0.824     0.800   3.3
       357   1535.933    818.936     0.554     0.500  24.2
       358   1138.155    823.582     0.840     0.447 -75.4
       359    457.490    832.892     2.449     0.829  -9.9
       360   1938.925    829.894     0.767     0.749  62.9
       361   1911.899    837.459     1.005     0.894  81.1
       362   1745.913    838.221     0.730     0.675 -57.3
       363   1057.106    839.787     1.124     0.747  44.9
       364    857.421    840.027     0.665     0.650 -50.6
       365    903.954    838.690     0.565     0.484   1.6
       366   1949.109    847.645     0.671     0.621 -79.5
       367   1746.714    847.141     0.796     0.328 -64.6
       368   1003.532    846.912     0.499     0.385  -1.7
       369    734.906    851.641     0.755     0.723   4.5
       370   1272.082    896.533    24.632     0.517 -13.0
       371    898.721    857.377     1.111     0.671 -82.0
       372   1970.630    854.229     0.696     0.552  49.0
       373    794.882    862.428     1.230     0.867 -79.1
       374    851.317    852.891     0.621     0.606 -82.2
       375   1888.618    858.690     0.729     0.657 -59.2
       376    343.926    854.812     0.391     0.261 -85.4
       377   1258.309    859.377     0.520     0.515  49.4
       378    510.607    928.049     6.369     2.532  74.3
       379    678.334    860.983     2.175     0.309  -1.7
       380   1643.005    895.414    11.149     3.498 -14.4
       381    650.726    894.178     3.445     0.545  60.1
       382   1374.943    876.775     3.245     0.788   8.8
       383   1948.083    894.876     6.611     0.510 -30.5
       384    961.062    920.630     6.255     0.847  78.9
       385   1938.819   1003.483    17.565     0.494  62.1
       386    296.394    875.947     0.559     0.542  86.5
       387   1972.977    873.967     0.535     0.514  30.2
       388   1925.762    916.196    13.237     3.099  -8.2
       389    164.377    936.514     9.012     0.519  46.6
       390   1348.025    902.827     3.206     0.697 -74.8
       391   1859.794    884.689     0.463     0.405 -87.6
       392   1029.764    927.702    10.812     0.523  24.5
       393   1381.241    901.060     0.802     0.774 -52.0
       394    475.442    901.136     0.751     0.693  65.0
       395     60.355    898.782     0.536     0.468  67.2
       396   1861.932    902.592     0.658     0.643 -86.9
       397   1875.596    920.269     2.459     1.105 -54.0
       398   1018.533    912.096     0.974     0.654 -38.0
       399    405.862    913.886     0.873     0.770 -51.0
       400   1104.525    925.816     0.799     0.776  69.9
       401    295.561    927.891     0.811     0.804 -25.0
       402   1768.641    936.261     9.672     0.504 -10.2
       403   1799.066    926.823     0.874     0.471  17.9
       404    872.278    921.431     0.495     0.464  89.9
       405   1380.091    933.350     0.993     0.555  47.7
       406   1366.140    933.622     2.531     1.015  -3.1
       407    578.093    931.300     1.049     0.306 -85.5
       408   1701.835    932.435     0.857     0.791  43.6
       409    834.781    930.732     0.724     0.714 -79.3
       410    131.966    938.245     0.430     0.234 -89.3
       411    836.256    943.668     0.692     0.670 -79.0
       412   1195.329    942.001     0.503     0.414 -39.0
       413   1889.678    947.061     0.752     0.736 -66.6
       414    453.000    950.389     0.776     0.289  90.0
       415     97.348    943.298     0.480     0.453  22.7
       416   1848.494    945.962     0.564     0.532  64.7
       417    829.782    947.437     0.724     0.381  74.9
       418   1884.141    952.576     0.703     0.565  -8.5
       419    202.847    966.742     2.538     0.879 -54.1
       420    492.573    966.261     3.030     0.399  48.8
       421    335.518    962.118     1.588     0.926  85.3
       422   1702.817    967.617     2.425     0.895  25.7
       423   1385.832    961.240     0.578     0.390  24.7
       424   1629.059    987.817    10.228     1.129 -18.0
       425    112.331    963.102     0.613     0.576  29.2
       426    404.386    974.802     1.179     0.914  60.3
       427    386.249    972.179     2.694     0.840  17.1
       428    200.987    994.953     5.815     0.517  32.1
       429   1213.567    973.658     0.781     0.771 -86.8
       430   2008.652    975.071     0.763     0.664  29.4
       431   1991.133    978.295     0.585     0.572  -3.9
       432    971.838    983.374     4.617     0.689  -1.2
       433    799.093    981.285     0.604     0.574 -63.5
       434    326.357    991.529     3.835     0.990 -15.5
       435    924.510    992.972     2.697     0.557  32.3
       436   1577.502    980.392     0.503     0.485 -23.9
       437   1163.773    984.211     0.607     0.593 -48.9
       438    710.677   1036.287    11.117     1.988  26.1
       439   1366.226    991.147     0.483     0.469 -10.9
       440    509.588    998.620     0.810     0.489  16.2
       441   1364.733    999.599     0.644     0.639  26.4
       442    577.059   1009.066     6.670     1.369  -0.8
       443    339.935   1000.063     0.620     0.616  39.5
       444    344.476   1027.828     8.151     0.518 -20.2
       445   1563.506   1009.415     0.608     0.598  21.5
       446   1348.835   1017.447     2.179     0.643 -35.3
       447   1176.469   1012.913     0.586     0.530 -70.3
       448   1278.419   1015.079     0.497     0.409  11.8
       449   1204.979   1022.221     8.123     0.507   5.2
       450    589.730   1018.877     0.864     0.317  66.6
       451   1615.715   1034.225     1.822     0.721  -9.8
       452   1391.896   1062.142     5.503     1.484 -67.4
       453   1727.686   1031.874     0.464     0.332   0.9
       454    398.755   1039.982     2.330     0.533 -15.2
       455    897.978   1142.122    12.569     0.711 -85.4
       456    600.939   1048.796     2.727     1.036  11.3
       457   2033.471   1045.135     0.624     0.598  75.2
       458    105.889   1049.218     1.168     0.631  32.0
       459    286.048   1095.658     5.842     4.637  51.4
       460   1655.764   1062.538     1.625     0.828 -48.7
       461   1161.172   1060.106     0.504     0.470 -18.3
       462    659.160   1063.314     0.669     0.647  49.6
       463   1459.918   1080.532     1.671     0.518 -56.4
       464    456.063   1078.560     1.721     1.492  82.1
       465   1318.580   1068.959     0.654     0.647  61.6
       466    891.183   1072.012     0.939     0.388 -85.8
       467    768.331   1076.247     1.467     0.822  18.1
       468   1070.151   1079.119     1.488     0.728 -43.1
       469    583.021   1079.844     1.147     0.847 -73.1
       470    562.534   1069.502     0.502     0.497  51.5
       471    463.333   1080.114     0.799     0.623 -15.4
       472    829.594   1091.031     9.809     0.943  -4.5
       473   1372.032   1247.132    20.924     5.267 -70.2
       474    825.123   1086.754     0.499     0.455  86.0
       475    150.454   1194.667    14.621     1.695  76.3
       476   1714.849   1104.323     2.639     0.943  16.1
       477   1602.586   1102.412     0.829     0.818  58.4
       478    524.643   1131.334     4.776     0.619 -64.1
       479    213.021   1098.490     0.632     0.500   0.1
       480    204.290   1115.055     0.767     0.701  67.4
       481   1040.069   1153.813     6.386     1.332 -36.2
       482     36.885   1116.885     0.806     0.790   6.7
       483   1239.755   1121.867     0.704     0.670  70.6
       484    245.543   1135.718     3.028     0.548  38.4
       485    390.604   1116.772     0.489     0.419   4.6
       486    598.140   1117.574     0.494     0.347 -89.6
       487   1540.254   1119.650     0.481     0.431  72.8
       488    380.664   1123.494     0.845     0.186  58.2
       489    600.145   1201.464    10.016     2.020  60.9
       490   1963.753   1156.802     3.982     2.557 -39.0
       491   1927.338   1156.876     5.932     0.491  26.7
       492    839.846   1184.282     6.356     2.473 -50.8
       493   1950.506   1153.525     0.921     0.497  81.3
       494   1961.301   1149.379     0.738     0.630  80.2
       495   1200.602   1157.890     1.520     0.706  89.0
       496    219.832   1152.545     0.563     0.543 -82.7
       497    140.901   1154.614     1.285     0.262 -57.8
       498   1933.661   1152.703     0.503     0.493 -50.5
       499    311.753   1176.297     5.295     1.990  34.6
       500    653.700   1159.502     0.691     0.669 -70.8
       501    122.641   1158.441     1.321     0.288  18.9
       502   1848.674   1172.263     3.897     0.767 -20.5
       503    840.058   1162.853     0.930     0.555 -27.3
       504   1301.172   1163.965     0.500     0.472 -50.4
       505    778.961   1179.602     5.979     0.758  15.0
       506    646.990   1192.901     3.174     1.457 -88.2
       507    893.317   1173.072     0.738     0.733  71.5
       508    707.286   1187.448     5.027     1.476   8.8
       509   1544.845   1187.096     2.276     0.399  73.3
       510   1906.961   1464.883    86.074     3.245 -23.1
       511   1349.328   1177.921     0.555     0.548 -49.9
       512   1897.913   1192.879     3.976     0.557  22.1
       513    184.589   1903.690     2.007     0.582  19.6
       514   1512.597   1024.438   665.697   120.658  88.5
       515    267.429    206.037   227.533     1.282 -90.0
       516    194.018   1992.584     9.082     0.958 -90.0
       517    174.832   1673.769     0.625     0.593 -59.9
       518    254.322   1735.833     1.196     0.998 -33.4
       519   1882.911   1801.672     8.835     1.572 -76.6
       520    259.645   1801.783     0.930     0.576  35.6
       521   1412.775   1736.073     0.742     0.729 -63.9
       522   1276.048   1804.394     0.822     0.649  40.6
       523    193.451   1810.878     0.498     0.460   1.1
       524    233.332   1735.596     0.521     0.516 -53.7
       525     94.554   1781.353     9.694     2.443 -48.5
       526    992.627   1768.303     0.652     0.625 -85.1
       527   1272.801   1778.886     0.821     0.549 -59.3
       528    768.484   1794.713     0.502     0.450 -11.6
       529   1607.495   1770.963     0.623     0.603  19.5
       530   1634.823   1776.365     4.607     0.594 -59.7
       531   1765.541   1790.481     2.183     0.393  32.4
       532    530.523   1772.591     2.485     0.569 -89.3
       533    187.714   1786.473     0.505     0.486  87.7
       534   1826.477   1776.982     0.766     0.754 -66.4
       535    735.270   1766.644     0.570     0.566  84.2
       536   1938.273   1754.276     0.739     0.722 -40.4
       537   1962.052   1749.341     5.928     0.543 -84.2
       538   1316.705   1748.029     5.303     0.843 -58.9
       539    846.956   1762.750     0.597     0.566   1.6
       540   1694.440   1692.798     0.589     0.479 -67.8
       541     21.491   1720.242    11.175     9.554 -24.2
       542      8.809   1740.024     0.558     0.432   4.0
       543   2004.456   1745.397     0.731     0.716 -72.6
       544   1937.682   1747.507     0.745     0.716 -59.7
       545    395.604   1735.619     3.522     1.451 -48.2
       546    510.221   1747.430     0.497     0.413  82.0
       547   1786.580   1741.065     0.547     0.523  72.3
       548   1379.330   1721.410     9.765     0.494  31.8
       549   1425.106   1680.815     0.731     0.505  66.5
       550   1063.961   1721.024     0.557     0.544 -63.6
       551   1610.810   1693.529     0.669     0.266  62.0
       552   1584.523   1683.760     5.801     0.895  66.1
       553   1229.579   1717.074    10.256     0.489  21.6
       554   1148.486   1687.937    32.260     0.533  -7.0
       555   1644.592   1680.721     0.687     0.678  16.7
       556    515.651   1721.936     0.924     0.741  42.2
       557    951.510   1702.131     3.748     0.596 -67.3
       558   1488.592   1613.351     0.621     0.615 -73.3
       559   1484.593   1709.179     0.763     0.634  -1.8
       560   1493.634   1679.171     3.789     1.237  84.0
       561    475.927   1699.372     0.494     0.383  89.6
       562   1260.953   1702.312     0.483     0.418  77.0
       563     56.039   1690.255     9.291     0.768  31.7
       564    956.847   1689.155     0.664     0.606  32.3
       565    703.028   1693.417     0.558     0.533  89.3
       566    846.492   1687.779     0.640     0.498  83.4
       567    865.205   1686.656     0.559     0.424  73.6
       568    596.760   1659.184     6.517     0.472  29.8
       569    529.782   1681.667     0.842     0.700 -86.9
       570   1971.976   1670.741     0.715     0.672 -51.7
       571   1277.795   1650.153     0.603     0.581  71.5
       572    423.340   1603.639     2.448     0.913  86.7
       573   1778.465   1656.979     0.751     0.740 -26.4
       574   1500.332   1652.560     2.220     0.665  -3.2
       575   1736.270   1657.625     2.314     0.819 -63.4
       576    661.039   1653.827     0.753     0.400   1.4
       577    790.049   1626.469    26.446     1.689  21.2
       578    560.185   1629.493    10.627     0.801  57.6
       579    257.571   1639.936     3.749     1.025 -57.4
       580   1324.691   1642.587     0.849     0.662  40.7
       581   1769.690   1613.383     0.595     0.571  23.4
       582    625.596   1620.910     0.672     0.636  24.6
       583   1039.245   1619.654     2.225     0.384 -26.3
       584   1889.992   1510.666     7.750     0.526  41.4
       585   1796.599   1616.498     2.525     0.680 -21.8
       586     68.195   1618.166     0.585     0.566  75.2
       587   1020.147   1619.784     0.743     0.689  47.1
       588    910.800   1605.459    11.932     0.512  59.1
       589   1372.481   1618.542     0.877     0.842  59.4
       590    102.270   1618.575     0.679     0.626 -89.5
       591   2019.666   1902.807     0.958     0.843  29.8
       592      1.000   1554.963     0.843     0.289  90.0
       593    513.889   1936.151     0.675     0.647 -72.8
       594    677.929   1605.768     6.258     2.075  83.2
       595   1016.512   1595.819     1.018     0.326  66.9
       596    519.565   1604.281     0.497     0.449  -8.2
       597   1359.318   1536.723     0.520     0.510 -21.7
       598   1529.028   1811.731     0.563     0.547 -79.2
       599   1511.520   1544.349     0.716     0.706 -57.1
       600    113.012   1590.490     6.794     0.531  14.6
       601   1881.186   1561.733     0.495     0.454 -85.7
       602     56.864   1596.381     0.600     0.582 -84.8
       603   1089.490   1583.541     0.503     0.495  39.8
       604   2015.261   1923.989     0.749     0.727  73.4
       605    314.656   1586.751     0.643     0.574 -20.2
       606     99.026   1569.884     2.586     0.714  74.9
       607   1270.500   1560.622    18.726     0.577  17.2
       608    724.803   1554.445     0.704     0.349  45.3
       609   1494.944   1567.852     0.776     0.677 -15.7
       610   1905.581   1926.624     0.842     0.820  75.6
       611   1643.239   1950.336     1.342     0.826 -78.1
       612    104.241   1411.193     3.683     1.793  88.6
       613    888.163   1341.469    12.447     0.635  57.7
       614   1006.162   1516.751    25.123     2.517  69.9
       615    915.386   1436.538     1.513     0.524  70.9
       616    924.945   1954.359     2.853     0.704  49.2
       617   1925.356   1567.440     0.645     0.621  27.4
       618    798.066   1952.569     5.013     0.495  -3.8
       619    445.304   1933.086    15.221     3.254 -17.9
       620   1730.241   1541.709     0.653     0.651 -36.1
       621   1165.768   1552.497    11.524     5.250 -65.0
       622   1648.576   1363.433     1.485     0.740  15.9
       623    228.168   1561.336     0.481     0.436 -86.3
       624    977.894   1950.719     2.522     0.438  -7.8
       625    667.835   1364.498     2.267     0.461  38.2
       626   1813.060   1544.682     0.468     0.383  80.7
       627   1949.810   1531.735     0.593     0.576  28.7
       628   1212.128   1366.018    10.366     0.510 -12.9
       629   1476.708   1814.142     0.537     0.476 -60.4
       630   1540.228   1423.798     1.733     0.405  62.2
       631   1810.929   1501.101     0.492     0.415  51.1
       632    596.681   1525.345     1.037     0.707 -25.6
       633   1677.162   1539.021     0.744     0.724  78.2
       634   1117.154   1429.716     2.969     0.787 -27.6
       635     50.123   1370.839     0.642     0.545  77.6
       636    545.941   1521.366     6.388     1.627  28.0
       637    178.410   1524.499     0.725     0.711  73.0
       638    542.379   1509.285     0.529     0.512  58.7
       639   1671.374   1514.820     0.513     0.490 -34.0
       640    986.130   1483.065     0.604     0.336 -88.1
       641   1526.759   1508.073     1.002     0.812 -72.6
       642    476.911   1503.721     0.462     0.375  89.9
       643   1768.107   1513.895     0.778     0.514  75.9
       644   1625.121   1507.058     0.932     0.604  57.0
       645    968.002   1501.309     6.711     0.527  -9.6
       646   1973.099   1470.885     5.258     0.510  -5.6
       647    986.011   1444.012     2.877     0.633 -59.0
       648   1036.360   1492.645     3.732     0.487  14.6
       649   1096.282   1497.373     0.590     0.535 -11.3
       650    706.197   1320.614     0.524     0.508  69.4
       651   1182.818   1441.632     5.526     0.591  17.5
       652   1534.191   1451.047     0.613     0.601  39.7
       653     76.005   1483.242     1.742     0.937  73.5
       654   1371.544   1445.001     0.498     0.279  -0.5
       655    956.758   1462.338     3.229     0.735 -15.0
       656   1857.115   1449.686     0.486     0.324  87.1
       657   1256.361   1454.538     9.131     0.600  34.0
       658     41.514   1387.866     0.892     0.487  77.6
       659    389.391   1471.625     1.564     0.920  10.7
       660    598.460   1472.265     3.838     0.690  56.7
       661   1481.013   1454.910     0.618     0.603  20.1
       662   1348.378   1465.376     0.629     0.582  82.0
       663   1223.752   1459.866     3.320     0.553   1.0
       664    944.759   1450.403     0.998     0.873 -71.8
       665   2014.410   1374.994     1.902     0.501 -56.2
       666   1626.907   1463.696     0.672     0.645 -49.5
       667    957.834   1401.402     0.637     0.609   5.5
       668    919.347   1431.544     0.875     0.761 -67.3
       669   1390.761   1449.231     1.789     1.009 -57.7
       670   1321.377   1449.140     0.696     0.674  78.7
       671    581.098   1445.666     1.488     0.773  83.4
       672    685.288   1336.304     0.835     0.610  89.8
       673    873.211   1429.227    11.417     1.195 -49.7
       674   1690.050   1441.434     1.548     0.703  46.9
       675    148.649   1414.914     0.583     0.564 -86.1
       676    317.072   1374.150     0.614     0.529 -84.6
       677   1677.462   1439.468     0.680     0.667 -30.0
       678   1015.822   1439.109     1.137     0.811 -76.8
       679   1142.556   1440.888     0.506     0.484 -10.3
       680    428.483   1433.360     0.502     0.478  17.6
       681   1601.890   1438.129     0.654     0.602  57.1
       682    731.804   1405.527     0.527     0.500 -64.0
       683    856.636   1399.664     7.801     1.005 -29.5
       684   1227.128   1411.762     1.304     0.595   2.4
       685    728.061   1388.880     0.896     0.433  75.6
       686   1500.920   1371.815     0.679     0.637  64.5
       687   1427.396   1419.058     7.764     0.974  41.9
       688    660.063   1386.251     1.418     0.930 -49.9
       689     39.150   1407.089     6.086     4.857  21.2
       690    898.792   1399.967     7.687     2.105 -31.7
       691    439.138   1348.690     2.234     0.713  53.2
       692   1388.439   1393.160     0.497     0.366   2.5
       693    450.657   1350.812     6.367     0.726  84.2
       694   1242.177   1389.251     0.736     0.693  52.1
       695   1697.354   1301.022    10.885     0.516 -12.8
       696    340.433   1391.183     4.128     1.903  34.9
       697    224.430   1359.378     0.594     0.563  87.5
       698   1151.309   1370.731     2.245     0.753  15.8
       699    506.533   1379.332     0.536     0.491  65.5
       700   1910.832   1371.406     5.568     0.491 -29.9
       701    885.514   1371.794     1.179     0.315 -60.2
       702   1317.617   1344.357     0.871     0.518  18.8
       703    843.561   1357.237     3.904     0.818  67.0
       704    227.118   1813.914     1.675     0.559  55.9
       705    900.673   1351.091     0.769     0.664  61.7
       706    824.116   1948.228     0.803     0.426  89.3
       707    861.052   1344.307     0.895     0.265  26.2
       708    791.446   1338.041     0.865     0.828 -78.9
       709    447.764   1941.066     0.502     0.482 -22.3
       710   1184.793   1348.621     3.411     0.758  53.3
       711    212.625   1317.756     0.577     0.476 -74.5
       712    349.957   1945.911     0.789     0.760  10.2
       713   1783.973   1891.078     0.527     0.384 -78.2
       714    688.049   1341.187     1.800     0.606 -43.7
       715   1556.482   1286.015     0.530     0.515  82.0
       716   1558.992   1298.236     3.840     0.931  87.2
       717   1403.397   1962.431     0.497     0.487 -63.2
       718   1946.645   1281.910     0.994     0.880 -63.0
       719    988.807   1318.863     1.295     0.516  -8.9
       720   1752.529   1326.477     0.526     0.472 -45.2
       721   1989.224   1322.875     9.055     1.310 -24.6
       722   1606.284   1298.450     2.839     1.896  84.0
       723   1486.068   1227.438     0.545     0.510 -82.9
       724   1364.974   1307.776     0.679     0.660 -69.8
       725    299.829   1293.620     0.540     0.431 -80.3
       726   1535.441   1304.823     0.774     0.750 -43.6
       727   1778.865   1286.071     0.602     0.596  54.2
       728    613.230   1304.344     0.599     0.530  74.7
       729   2024.260   1311.515     0.526     0.520  85.6
       730    715.253   1830.837     1.725     0.311  52.3
       731   1689.372   1310.821     0.777     0.772 -77.7
       732   1683.536   1284.069     0.903     0.624 -72.9
       733    680.779   1297.140     6.186     0.673  67.4
       734    765.607   1824.149     0.636     0.606 -70.4
       735   1605.172   1831.580     0.964     0.746 -46.9
       736    471.284   1192.652     0.666     0.333  36.6
       737   1869.540   1260.650     0.528     0.490  61.7
       738    472.763   1269.704    11.917     3.215  64.4
       739   1593.776   1284.875     4.155     0.395 -34.2
       740   1714.071   1216.385     2.413     1.224 -13.3
       741   1964.986   1292.018     0.408     0.402   3.1
       742     92.684   1607.666     3.929     1.180 -74.5
       743   1954.486   1846.959     0.525     0.389 -24.4
       744    223.681   1281.025     0.595     0.582 -74.8
       745   1135.610   1211.149     0.606     0.594  14.0
       746    548.305   1271.603     0.769     0.708  59.8
       747   1864.458   1857.035     0.864     0.737 -76.5
       748    655.060   1269.223     2.879     0.480   3.9
       749   1545.716   1830.338     9.772     0.775  57.4
       750   1015.359   1271.397     4.559     1.008  11.9
       751    514.558   1191.708     0.691     0.675  23.9
       752   1869.569   1829.713     0.498     0.466   0.2
       753    982.313   1260.268     1.034     0.675 -23.6
       754    415.643   1847.902     0.766     0.642 -47.4
       755   1203.839   1257.650     0.614     0.500 -29.4
       756    872.089   1250.651     0.931     0.255  81.9
       757    995.229   1234.147     4.729     0.511  34.2
       758   1062.756   1242.849     0.578     0.555  63.5
       759    309.832   1242.252     0.460     0.434   6.2
       760     59.138   1237.629     0.660     0.510 -82.0
       761   1256.681   1231.850     0.466     0.387   0.9
       762    322.007   1251.830     0.809     0.769  28.9
       763   1960.221   1249.172     0.418     0.384 -17.8
       764     75.122   1226.799     1.089     0.873  89.7
       765     29.161   1904.535     0.672     0.634 -76.1
       766     52.885   1237.752     0.826     0.806 -43.6
       767    627.855   1919.589    14.055     0.527  11.1
       768   2013.711   1223.985     0.579     0.538 -67.0
       769   1183.950   2135.099     0.419     0.367  87.5
       770   1733.040   1217.604     0.678     0.652  85.1
       771   1807.302   1225.585     0.627     0.597  26.3
       772   1691.541   1193.336     0.525     0.514  65.0
       773   1621.341   1807.729     5.989     0.741 -87.7
       774   1305.296   1215.456     0.530     0.419  56.1
       775    446.781   1768.681     4.569     1.284  30.5
       776    989.498   1195.269     0.693     0.686  -6.0
       777    353.447   1215.798     0.600     0.401  -9.0
       778    449.920   1805.234     0.488     0.473  84.0
       779    391.673   1813.155     0.688     0.546  74.1
       780   2039.908   2033.279     0.636     0.282 -83.4
       781   1996.419   1916.232     7.835     1.057  -6.6
       782    737.641   1202.256     0.509     0.443  -6.0
       783   1048.356   1193.686     0.615     0.593 -51.5
       784    499.057   2002.435     0.497     0.445  82.3
       785    416.267   1185.880     0.569     0.434 -20.7
       786    136.370   1189.049     0.792     0.482 -86.9
       787    906.205   1868.305     0.858     0.755  49.0
       788   1705.500   1843.251     0.835     0.813  78.3
       789    833.851   2141.836     0.907     0.824 -38.6
       790   1181.281   1803.505     8.652     0.525 -44.7
       791    608.517   1823.852     0.512     0.509  24.9
       792   1739.917   1832.351    10.168     2.125  -4.8
       793   1411.051   1837.557     0.497     0.220 -89.8
       794   1502.536   1831.378     5.099     2.493   3.4
       795   1213.456   1804.194     0.555     0.551 -20.4
       796    192.189   1963.632     1.465     0.502  41.4
       797   1248.830   1226.260     2.067     0.499  55.6
       798   1462.172   1965.014     5.601     2.435  74.3
       799   1311.765   1840.598     0.711     0.418 -26.5
       800   1439.391   1856.612     0.637     0.556 -28.2
       801   1605.962   1641.298     0.691     0.627  14.5
       802   1381.667   1812.013     0.865     0.445  46.5
       803   1137.607   1764.247    11.312     0.535  22.9
       804   1684.525   1920.385     0.624     0.311 -43.8
       805    828.926   1863.336     2.513     0.707 -62.0
       806    135.050   1817.167     4.058     0.486 -39.7
       807    690.383   1909.819     1.686     0.491  -6.3
       808    721.958   1827.034     1.038     0.704  18.1
       809    660.701   1809.644    59.088     0.692  10.0
       810   1115.822   1964.479     1.165     0.732  -3.6
       811   1353.262   1893.942     0.774     0.710 -78.0
       812   1983.335   1634.393     1.311     0.587 -48.8
       813   1407.899   1914.400     0.730     0.561 -66.2
       814   1469.889   1920.635    10.818     1.637 -30.6
       815    997.966   1918.410     7.569     1.699 -60.5
       816   1660.361   1896.356     4.070     1.614 -33.3
       817    275.227   1964.495     0.529     0.490  29.7
       818    162.087   1907.482     0.536     0.282 -89.6
       819    591.513   1926.057     6.945     0.622  -4.3
       820   1833.271   1979.491     0.637     0.623   0.4
       821    433.534   1963.578     1.003     0.702  20.8
       822   1228.309   1905.138     1.536     0.846  52.3
       823   1459.724   1631.166     0.850     0.824 -72.4
       824    674.270   1961.091     0.624     0.501  26.3
       825    456.444   1921.506     1.123     0.841  75.9
       826    318.794   1880.600     0.492     0.402 -80.8
       827   1264.518   1887.680     0.727     0.721  54.8
       828    683.154   2039.255     0.719     0.586 -77.5
       829   1198.691   1973.854     0.528     0.245  33.0
       830    406.684   1827.835     2.011     1.049  50.6
       831   1677.073   1982.729     0.616     0.293  81.7
       832     96.431   1920.874     0.497     0.334   6.4
       833     53.843   1889.801     0.933     0.319 -52.4
       834     14.713   1910.113     0.844     0.834  57.0
       835    316.958   2020.403     0.794     0.720  17.4
       836    498.291   2035.046     0.847     0.682 -47.6
       837   1590.090   1904.355     9.556     0.501   1.3
       838    881.793   2033.347     0.510     0.483  79.8
       839    978.906   1924.458     5.870     0.553  40.7
       840     67.261   1882.554     2.884     0.616 -72.4
       841    465.950   1992.498     3.852     0.524  -4.2
       842    348.407   2033.573     4.426     0.941 -62.5
       843   1753.419   1890.895     1.143     0.901 -38.9
       844    953.168   1892.910     0.864     0.610  20.3
       845   1315.923   2033.146     0.781     0.773  45.2
       846    948.596   1985.392     0.604     0.375  48.1
       847   1436.839   1879.005     5.149     0.543 -76.2
       848   1841.764   1995.582     0.555     0.473  69.3
       849    764.953   1902.961     1.191     0.631  -1.3
       850   1357.691   1898.440     1.104     0.635 -76.8
       851   1491.142   2021.328     0.857     0.715 -38.4
       852   1971.877   2027.670     0.692     0.671 -49.5
       853    280.660   2025.309     4.214     0.738   0.5
       854   1015.805   2021.188     1.048     0.843 -32.7
       855   1656.260   2007.014     0.747     0.497  31.3
       856   1953.189   1886.630     0.513     0.499 -87.1
       857   1718.023   1987.135     5.106     0.673  47.5
       858    889.135   2007.714     0.564     0.543   0.3
       859   1794.709   2002.761     1.762     0.688 -32.2
       860   1418.592   2011.394     0.716     0.682  -3.5
