#   1 NUMBER                 Running object number                                     
#   2 X_IMAGE                Object position along x                                    [pixel]
#   3 Y_IMAGE                Object position along y                                    [pixel]
#   4 A_IMAGE                Profile RMS along major axis                               [pixel]
#   5 B_IMAGE                Profile RMS along minor axis                               [pixel]
#   6 THETA_IMAGE            Position angle (CCW/x)                                     [deg]
         1    829.846     65.096    12.933     7.712  89.1
         2   1204.927     65.157    15.468     7.852 -10.3
         3   1920.799     32.978     3.825     0.991 -79.9
         4   1318.539     23.578     7.538     1.390 -27.1
         5    791.974     11.401     6.602     0.567 -51.3
         6   1526.739      8.638     3.994     0.836 -86.7
         7   1258.002      3.498     0.703     0.582  11.8
         8    524.591      3.019     0.626     0.319  -0.5
         9   1866.624      1.000   173.080     0.289   0.0
        10   1526.587     55.052     5.540     0.727 -88.7
        11    640.087     18.178     1.776     0.783  -1.5
        12    991.301     19.649     1.466     0.438 -71.9
        13     31.002     17.755     0.830     0.705 -89.5
        14    591.611     33.015     1.393     0.754  53.5
        15    565.331     25.313     0.581     0.565  -9.7
        16   1951.015     27.920     0.439     0.337 -88.3
        17    456.901     39.390     1.375     0.735  53.1
        18    237.000     33.058     0.446     0.432  90.0
        19     13.805     32.629     1.173     0.462   7.5
        20   1739.171     41.031     0.832     0.770  -7.1
        21   1796.289     43.589     6.169     0.475  -4.3
        22   1817.503     39.384     0.533     0.523  49.5
        23   1341.467     48.714     3.285     0.514 -24.5
        24   1879.752     46.662     0.679     0.635 -49.8
        25   1559.445     46.220     0.640     0.616 -83.6
        26   1501.906    100.005     9.945     1.191  42.0
        27    848.730     51.025     0.759     0.728 -70.4
        28    702.396     52.575     0.786     0.744 -41.7
        29    481.730     47.422     0.494     0.444  89.8
        30   1220.026     92.287     6.961     0.684 -40.3
        31   2039.335     59.077     0.774     0.657 -89.4
        32   1934.809    133.890    14.996     0.501  36.0
        33     32.396     55.947     0.675     0.616  26.2
        34   1160.506     68.131     0.811     0.785  52.4
        35    419.087     63.683     0.610     0.578 -50.9
        36   1465.291     69.693     0.866     0.836 -80.9
        37   1782.009     77.193     1.518     0.718 -62.6
        38   1060.929     80.836     1.696     0.872 -59.6
        39   1380.798     71.638     0.664     0.298 -63.1
        40    612.594     92.099     2.052     0.739 -66.1
        41    481.971     81.136     0.777     0.745   2.9
        42   1965.040     80.424     0.657     0.565   1.6
        43   1620.562     78.367     0.497     0.481  14.5
        44    437.850    100.878     4.385     0.733 -19.9
        45   1343.490    102.270     2.601     0.835  53.2
        46    469.150    109.007     2.829     0.925 -81.5
        47   1638.583     94.518     0.732     0.715  36.8
        48    747.837    107.036     1.337     1.217  29.8
        49   2039.885    100.543     0.676     0.318 -88.5
        50    391.529    180.550    10.829     1.810  69.0
        51   1909.466    106.670     0.869     0.614  45.1
        52    624.646    110.545     0.781     0.759  65.6
        53   1444.359    111.504     0.656     0.620  59.9
        54    592.083    111.020     0.408     0.328  19.4
        55   1949.854    115.982     0.456     0.321  -1.4
        56   1018.866    121.687     0.636     0.631   5.1
        57    853.417    131.826     1.368     0.785  35.6
        58    200.399    142.720     5.915     0.543 -18.1
        59    270.000    134.763     1.724     0.289  90.0
        60    564.932    127.764     0.460     0.423  82.3
        61   1176.940    196.585     9.314     0.504  53.1
        62     70.994    156.049     5.104     1.900  13.1
        63   2011.296    170.968     6.553     0.521 -36.1
        64    301.945    138.186     0.521     0.402 -88.0
        65   1423.190    196.889     9.864     0.666  42.8
        66   1202.823    226.111    11.243     1.091 -64.7
        67    682.332    155.740     0.668     0.524  62.7
        68     50.602    157.432     0.516     0.490  52.8
        69   1990.782    183.281     2.738     1.453 -64.9
        70   1171.752    168.177     1.234     0.693  -0.2
        71    370.349    174.351     0.968     0.862 -66.6
        72   1259.672    173.217     0.832     0.628 -63.5
        73    371.439    169.039     0.663     0.627  55.3
        74    926.997    176.070     0.697     0.687  70.8
        75    648.306    174.328     0.639     0.615 -45.6
        76    931.165    175.274     0.464     0.353  67.6
        77   1940.746    176.206     0.479     0.423  62.4
        78    363.130    189.239     1.157     0.730  87.9
        79   1971.589    235.941     8.687     1.038  55.3
        80    606.857    264.272     9.235     2.978 -87.7
        81    270.000    196.921     1.432     0.289  90.0
        82    411.743    210.105     2.139     0.525 -76.9
        83    766.924    218.221     2.790     2.037 -84.8
        84    963.163    197.307     0.673     0.667  32.0
        85   1901.836    194.308     1.173     0.461   1.1
        86   1941.047    208.926     1.345     0.478  70.5
        87   1340.150    214.242     1.180     0.683 -71.2
        88    379.993    210.211     2.188     0.374  -4.6
        89    888.004    215.358     0.760     0.748  87.2
        90     48.493    210.259     0.500     0.438   1.7
        91   1479.171    285.758    21.915     5.187 -13.5
        92    270.000    219.154     1.381     0.289  90.0
        93   1163.005    765.741    63.809     0.071  90.0
        94    658.996    221.552     1.298     0.638 -12.1
        95    670.509    245.861     4.207     0.526 -38.6
        96   1128.560    228.575     0.708     0.688  73.3
        97    178.682    239.951     0.688     0.652  52.0
        98    421.444    248.522     0.962     0.861 -11.7
        99   1445.164    239.299     0.458     0.370 -85.8
       100   1087.830    244.917     0.815     0.295 -72.3
       101    750.709    245.103     0.648     0.233  18.8
       102    759.174    246.636     1.109     0.472  -5.4
       103    516.366    265.048     1.262     0.946 -79.4
       104   1533.761    260.247     0.750     0.737  52.2
       105   1733.907    277.937     3.504     0.616 -71.9
       106    613.249    258.719     0.474     0.454 -81.0
       107   1004.727    338.663     8.819     0.600 -60.6
       108    664.622    277.931     2.748     0.505  64.4
       109    530.229    281.912     0.856     0.842  50.7
       110   1861.765    282.702     0.578     0.566 -38.5
       111    666.302    287.856     1.122     0.495  46.2
       112    285.129    293.191     0.655     0.651 -20.8
       113    735.474    330.832     5.151     1.222 -80.8
       114   1957.640    306.723     1.100     0.950 -41.8
       115   1510.215    303.836     0.821     0.800 -60.5
       116   1245.979    298.979     0.444     0.420 -88.8
       117   1399.402    304.259     0.644     0.571 -34.1
       118   1926.695    313.535     1.679     1.116 -18.3
       119    930.115    359.446     9.543     1.111 -55.9
       120    385.780    311.798     0.440     0.410  69.3
       121    778.338    348.583     6.359     1.044  34.2
       122    816.296    324.868     1.027     0.760  40.5
       123    666.508    324.953     0.893     0.799  35.5
       124   1492.039    326.282     2.814     0.538  13.2
       125   1347.156    326.211     0.624     0.612  66.4
       126   1633.271    348.197     2.444     0.707  63.0
       127    623.494    335.097     0.760     0.731  56.2
       128   1113.152    331.934     1.314     0.526  14.4
       129   1713.396    371.763     4.593     0.938  75.7
       130   2021.898    333.965     0.419     0.385  -1.5
       131    421.620    336.563     0.514     0.510  48.9
       132      8.560    351.385     1.990     1.451   1.0
       133    382.722    337.095     0.448     0.293   0.3
       134   1848.642    421.021    11.751     2.344 -63.5
       135    423.614    347.197     1.047     0.543  67.8
       136      6.023    374.744     4.522     0.919 -65.7
       137   1899.356    346.470     0.725     0.717 -82.2
       138   1456.251    346.126     0.493     0.479  43.4
       139   1367.079    353.210     0.801     0.794  16.4
       140    633.410    351.719     0.553     0.477 -64.5
       141      7.667    516.165    16.049     0.917  89.9
       142   1533.711    353.611     1.001     0.248  40.1
       143    231.558    365.574     0.842     0.808  90.0
       144    520.568    371.959     0.937     0.773  41.1
       145   1677.216    388.246     7.553     0.639 -22.0
       146   1532.528    422.278     6.853     2.561 -75.5
       147   1324.205    365.834     0.574     0.562  78.6
       148    586.571    374.837     0.888     0.820   5.0
       149    666.954    372.549     2.668     0.529  -5.6
       150   2001.400    433.879     7.311     0.571  67.8
       151   1048.393    403.274     3.255     0.579  65.3
       152    773.539    391.017     1.958     0.277 -56.8
       153    853.996    386.003     0.519     0.490  43.6
       154   1420.253    389.158     0.641     0.511 -69.2
       155   2015.562    397.116     2.233     0.683 -22.9
       156   1025.398    411.705     1.111     0.750  45.1
       157   1469.419    429.570     3.521     0.512 -66.7
       158   1878.224    411.461     0.679     0.663  71.8
       159    924.025    412.603     0.823     0.730 -56.0
       160    225.131    413.411     0.750     0.607  59.9
       161    340.907    414.730     0.622     0.590 -66.4
       162    926.939    458.745     4.148     3.194 -81.9
       163    388.882    436.968     1.825     0.953  65.5
       164   1956.313    429.618     1.397     0.694   1.7
       165    831.117    425.979     0.526     0.322  89.2
       166    794.816    426.986     0.621     0.343 -69.6
       167    511.700    429.964     0.493     0.437   6.6
       168    914.241    434.990     2.520     0.529   3.4
       169    527.269    442.438     1.027     0.742 -81.0
       170   1612.505    434.938     0.576     0.538 -73.7
       171   1601.696    470.720     3.601     0.860 -89.2
       172    257.964    447.262     0.926     0.841  -1.4
       173   1381.221    485.209     6.251     0.535  56.1
       174    412.604    445.652     0.785     0.634  73.3
       175    950.313    453.195     0.619     0.570 -67.4
       176   1584.233    454.437     0.724     0.717  56.4
       177   1687.562    482.234     6.483     0.574  22.9
       178    349.002    472.731     1.103     0.672 -89.3
       179   1764.487    469.575     0.796     0.786   5.7
       180   1982.186    467.224     0.670     0.663  76.3
       181    453.759    468.212     0.785     0.705 -45.5
       182   1955.765    472.732     0.750     0.720 -85.8
       183   1975.944    475.109     0.693     0.686 -58.8
       184     14.007    574.205    13.286     2.411  86.9
       185    835.921    482.565     0.969     0.950  56.6
       186    651.985    477.384     0.811     0.517  10.2
       187   1955.805    512.753    15.786     1.882  12.2
       188     62.803    482.172     1.012     0.375  -2.9
       189   1921.835    490.794     0.803     0.778 -52.5
       190    881.340    491.304     0.793     0.619 -50.4
       191    650.847    488.969     0.752     0.544  66.6
       192    992.142    501.380     3.364     0.519  22.8
       193   1258.504    499.610     3.232     0.538 -10.8
       194    908.662    497.886     0.968     0.580 -37.7
       195   1760.047    501.734     0.674     0.603  80.7
       196   1080.481    503.556     0.707     0.697   9.6
       197   1010.696    503.026     0.575     0.563   0.8
       198    559.833    546.172     9.548     1.357  28.2
       199   1158.572    546.297     5.211     0.549 -84.6
       200    340.315    508.102     0.465     0.340   0.4
       201    571.542    575.720    14.315     4.441  17.2
       202    639.733    516.859     0.665     0.646 -44.4
       203   1282.233    534.164     3.601     0.512 -47.7
       204   1619.291    518.069     0.669     0.654  46.2
       205   1298.142    518.670     0.736     0.688 -35.1
       206   2001.067    517.051     0.495     0.475 -87.3
       207    664.305    525.442     0.936     0.659  50.9
       208    628.515    528.346     1.463     0.895  -9.0
       209   1948.576    533.789     1.071     0.451 -67.3
       210    244.924    539.790     0.968     0.832  49.4
       211    226.386    534.700     0.545     0.387 -39.7
       212   1641.871    537.845     0.566     0.470  70.4
       213    971.406    550.250     0.887     0.715  79.9
       214   1344.687    558.449     0.918     0.851  73.1
       215    453.516    596.729     6.386     1.371  71.4
       216   1075.076    562.027     1.082     0.851  27.1
       217   1330.853    560.071     0.611     0.525  83.0
       218    102.448    560.657     0.602     0.511  67.8
       219   1662.990    562.877     0.575     0.563 -42.4
       220    220.580    572.990     0.843     0.821 -64.6
       221   1468.403    595.371     2.576     0.699  79.1
       222    806.267    579.260     2.400     0.535   8.4
       223    858.335    583.499     0.771     0.729  67.2
       224   1011.530    585.026     0.499     0.366  -2.6
       225    431.401    595.236     7.958     0.667  -2.9
       226   1308.877    590.519     0.783     0.736 -53.4
       227   1210.177    591.360     0.809     0.778  75.3
       228   1788.091    592.866     0.766     0.673  88.2
       229    137.437    612.297     5.815     0.975 -22.5
       230    474.741    638.876     8.150     1.594 -56.9
       231    760.934    607.106     6.853     0.706   9.2
       232   1372.793    620.111     4.177     1.102  30.2
       233   1813.950    601.901     1.102     0.620 -17.5
       234   1688.929    605.054     0.594     0.566  44.7
       235    660.661    608.185     0.807     0.718  -0.9
       236    545.854    608.542     0.833     0.657 -33.4
       237   1972.119    638.016     7.263     0.878 -28.6
       238    838.102    651.297     5.081     2.065  63.0
       239    964.957    645.123     7.239     1.314 -32.5
       240    342.551    616.443     0.500     0.494  41.3
       241    537.160    619.686     0.569     0.421 -44.5
       242   1175.821    627.662     1.264     0.733   2.9
       243   1221.140    641.707     2.907     2.007   4.8
       244   1504.281    626.763     0.815     0.627   5.1
       245   1380.443    674.803     8.076     0.941  74.5
       246   1466.981    639.660     1.268     0.538 -60.4
       247   1319.782    635.876     0.525     0.517  32.1
       248    811.748    634.380     0.562     0.491 -50.5
       249   1657.528    657.788     2.636     0.904  67.5
       250   1009.701    650.145     1.497     0.527  27.4
       251   1162.690    646.016     1.327     0.509 -19.6
       252   1706.914    659.112     1.726     0.886 -40.9
       253    347.444    677.293     5.368     0.922  41.0
       254    630.295    655.373     0.879     0.672  61.1
       255   1168.323    656.087     0.882     0.757 -62.4
       256   1282.411    703.821    18.408     1.598  17.9
       257   1119.735    659.953     0.697     0.683 -20.1
       258   1908.210    662.418     0.493     0.407 -88.0
       259    903.586    693.346     3.185     2.787 -19.9
       260   1221.959    672.799     1.002     0.850  20.4
       261   1449.105    671.046     0.776     0.756  52.2
       262    678.196    682.119     2.623     0.797 -25.8
       263    968.093    675.337     0.624     0.616  87.3
       264    531.977    675.316     0.538     0.436 -59.2
       265   1697.780    682.708     0.709     0.625  81.8
       266   1619.351    719.144    11.295     0.592  21.4
       267   1664.331    689.327     0.772     0.702  13.2
       268    430.421    689.246     0.675     0.655 -71.7
       269    201.454    693.430     0.624     0.611  89.1
       270   1660.460    700.987     1.084     0.778 -20.2
       271    102.305    710.728     2.893     1.255  16.2
       272   1467.330    703.782     1.504     0.403 -80.4
       273    651.966    700.758     0.448     0.385  87.0
       274     78.540    701.055     0.701     0.621 -27.1
       275   1032.190    722.547    10.595     1.882 -11.8
       276   1827.267    703.102     0.489     0.459 -30.1
       277    694.264    706.625     0.489     0.441 -88.3
       278   1633.294    713.552     6.919     0.496  -3.2
       279    446.663    709.688     0.511     0.505 -63.1
       280    451.254    720.077     0.780     0.668  72.8
       281   1772.589    708.590     0.520     0.462 -45.0
       282   1020.560    714.534     0.679     0.643 -22.9
       283    580.811    717.725     0.521     0.481  30.6
       284   1147.570    713.796     0.501     0.447   6.0
       285    914.074    717.407     0.571     0.540 -29.4
       286   1688.776    714.812     0.444     0.433 -42.7
       287    244.184    722.440     1.265     0.654  24.0
       288    302.135    750.960     3.377     1.396 -80.3
       289   1138.879    725.867     0.636     0.598  78.2
       290   1862.468    724.829     0.520     0.504 -12.1
       291    552.600    788.613     7.921     1.259  46.5
       292   1652.222    743.580     8.696     0.521   6.9
       293   1332.729    757.925     2.878     0.523 -59.8
       294   1435.246    744.866     0.850     0.789 -45.1
       295   1605.989    755.343     1.364     0.253  87.5
       296     93.978    765.181     1.935     0.908  48.0
       297   1312.623    779.338     4.343     0.637  53.5
       298   1091.093    757.421     0.796     0.456 -88.4
       299   1257.040    752.780     0.505     0.349  89.0
       300   1447.760    792.316     4.686     0.447 -86.9
       301   1356.213    788.788     9.476     0.561 -24.0
       302   1220.715    761.934     2.434     0.488 -12.0
       303   1024.312    758.114     0.463     0.317  -0.8
       304   1387.627    760.701     0.484     0.458   0.5
       305   1259.159    765.253     0.543     0.469  53.6
       306      2.674    772.127     1.339     0.639 -23.1
       307    813.267    773.676     0.740     0.681  -1.5
       308   1708.440    785.386     1.464     0.907 -88.9
       309    867.334    793.519     5.000     1.123  35.9
       310   1348.046    772.014     0.361     0.351   5.8
       311   1061.258    777.541     0.842     0.517 -23.6
       312   1275.681    794.509     4.518     0.919  30.4
       313   1989.751    799.426     2.894     1.101 -77.2
       314   1896.214    788.687     0.695     0.659 -87.9
       315     20.908    806.098     1.973     0.567 -73.8
       316   1858.824    791.076     0.381     0.314  -5.1
       317   1188.848    820.319     3.613     0.745 -51.7
       318    407.857    790.456     0.498     0.350 -88.7
       319   2000.329    808.423     2.260     0.420 -74.0
       320   1346.632    803.638     0.962     0.853  52.5
       321    184.305    902.824    13.788     1.048  69.4
       322   1932.851    826.169     3.697     2.295 -68.8
       323    839.571    815.575     3.137     1.270  18.5
       324    514.797    805.403     0.544     0.535  86.1
       325   1340.556    881.805     9.523     1.636 -42.7
       326   1089.881    807.167     0.434     0.236 -52.6
       327    993.567    812.211     0.557     0.537 -59.6
       328    449.630    835.449     6.718     0.982 -18.2
       329   1402.434    821.538     1.057     0.779  53.3
       330   1342.996    814.935     0.821     0.378  24.8
       331   1450.236    850.423     4.493     1.355  53.9
       332    614.926    817.293     0.456     0.259 -85.0
       333    821.161    847.979     6.713     0.781  23.5
       334    251.491    834.060     2.788     0.479 -14.7
       335    394.944    831.314     0.733     0.664  68.6
       336     26.973    855.245    13.397     0.404 -12.5
       337   1222.256    850.825     2.965     0.757 -71.2
       338    395.548    838.822     3.043     1.088   0.0
       339    100.211    829.433     0.651     0.495  -1.6
       340    632.379    839.154     1.943     0.440 -21.9
       341   2008.879    845.614     0.955     0.692 -26.2
       342    474.974    851.677     1.311     0.749 -28.2
       343   1630.757    850.466     0.709     0.608   8.8
       344    464.210    853.540     1.641     0.589   8.8
       345    340.822    856.411     0.647     0.584 -21.8
       346    755.508    858.161     0.683     0.675  70.7
       347    324.968    911.751     6.237     0.934 -78.8
       348    219.796    862.379     0.616     0.606  75.6
       349   1464.822    863.283     0.674     0.611 -54.1
       350    324.063    863.412     0.759     0.743  24.8
       351    487.097    875.651     0.942     0.800 -78.0
       352     66.883   1038.109    27.832     0.499 -47.2
       353   1396.877    885.133     3.998     0.517  32.9
       354   1093.278    902.865     4.728     0.703  57.0
       355   1214.885    877.800     0.809     0.762  32.6
       356    563.498    870.399     0.500     0.490   0.8
       357   1209.313    876.847     0.569     0.566  73.5
       358    668.221    888.129     0.850     0.782  76.0
       359    227.075    904.349    10.447     0.868  11.4
       360    622.781    962.260    13.558     2.987 -45.3
       361    683.924    914.481     6.672     0.521  29.7
       362    553.483    925.947     5.570     1.110  60.0
       363   2019.568    925.590    11.526     0.686  24.0
       364   1558.117    918.330     3.973     1.418 -39.6
       365    217.759    893.929     0.428     0.256   1.7
       366   1794.885    909.312     1.822     0.904 -57.4
       367   1055.444    906.810    10.456     0.700  -7.1
       368   1861.939    902.593     0.658     0.646 -70.8
       369   1144.270    919.950     6.936     0.492 -20.4
       370    645.672    914.818     4.681     0.503 -16.9
       371   1773.425    908.515     0.574     0.525  69.3
       372    719.999    941.906     6.382     0.854 -35.1
       373    400.293    914.916     0.923     0.616 -36.7
       374    275.126    914.469     0.756     0.401  69.1
       375     66.706    921.874     1.652     0.786  56.8
       376    828.869    914.341     0.658     0.644  70.7
       377   1083.648    919.083     0.568     0.532  -7.4
       378    639.617    913.461     0.499     0.485  75.5
       379    642.473    934.991     3.648     0.527  34.7
       380   1217.245    918.777     0.433     0.413  22.7
       381   1042.729    928.140     0.815     0.749 -36.3
       382    728.378    946.590     1.137     0.791 -57.9
       383    236.507    946.781     0.842     0.572 -43.1
       384   1009.789   1029.340    10.243     0.693  82.5
       385    829.580    947.395     0.521     0.460  42.8
       386    799.894    953.349     0.623     0.300  79.3
       387    698.051    957.444     0.795     0.753 -34.5
       388   1282.421    962.965     1.635     0.711  -4.2
       389   1595.116    960.631     0.925     0.743  38.9
       390   1702.382    956.873     0.619     0.588  32.2
       391    187.878    956.927     0.602     0.595  30.0
       392    924.766    968.909     0.756     0.695 -65.1
       393   1983.810    972.152     1.103     0.800  58.8
       394   1854.155    977.532     8.180     0.550   9.2
       395   1014.007    978.471     7.618     0.738  -1.4
       396    552.007    967.768     0.550     0.513 -46.9
       397   1552.576    975.297     0.801     0.583 -75.5
       398   1160.433    971.898     1.802     0.408  15.6
       399    144.651    970.112     0.549     0.535  87.0
       400    765.252   1000.969    13.239     0.526  16.1
       401   1014.992   1248.021    39.399     0.572  51.6
       402   1584.578    974.635     0.495     0.480  17.0
       403   1267.676    993.363     4.182     0.525  27.2
       404   1669.212    977.939     0.461     0.435  23.8
       405    917.908    988.193     2.217     0.717  21.6
       406    662.794    991.574     1.080     0.599 -82.8
       407    622.022    998.152     4.549     0.814  16.4
       408    199.635    990.794     1.038     0.556  15.4
       409   1040.866    996.790     0.653     0.603  12.3
       410    202.790   1075.515     9.523     0.513 -70.9
       411    693.738   1010.311     2.013     0.807 -18.8
       412     56.532   1002.574     0.623     0.579 -67.7
       413   1835.431   1003.554     0.604     0.583  57.3
       414   1481.216   1001.826     0.541     0.520  37.0
       415    789.151   1000.205     0.412     0.349  68.3
       416    828.827   1045.654     5.109     0.528  60.8
       417    199.826   1024.567     2.648     0.585  23.2
       418    225.793   1079.650     8.936     0.499 -80.4
       419    982.462   1025.033     1.541     0.767 -66.0
       420   1623.836   1016.540     0.553     0.301  62.3
       421   1960.031   1053.079     4.894     0.897 -69.2
       422   1641.868   1059.732     7.776     0.555 -28.0
       423    523.368   1040.803     2.265     1.529  63.5
       424    536.259   1105.798     7.455     0.671  76.6
       425    112.967   1043.573     2.329     1.247 -28.8
       426    630.902   1036.745     0.815     0.785  63.2
       427    992.410   1041.780     0.633     0.617 -46.7
       428   1993.488   1056.587     6.246     0.829  12.1
       429   1189.106   1148.840    13.386     1.748 -75.5
       430    511.702   1047.343     0.488     0.467 -63.0
       431   1849.829   1058.816     4.409     0.696  12.0
       432    573.730   1059.884     0.913     0.773  41.3
       433    421.985   1065.184     0.927     0.801 -87.7
       434   2023.919   1058.878     0.427     0.414 -82.7
       435   1389.382   1061.100     0.500     0.451  -2.3
       436    416.877   1060.353     0.481     0.391  79.3
       437    675.846   1064.280     0.449     0.361  86.7
       438   1470.055   1067.345     0.500     0.468  83.8
       439    822.842   1092.033     2.376     1.200 -84.7
       440   1800.204   1070.578     0.631     0.608  48.3
       441   1615.247   1116.676     6.467     0.951 -59.1
       442   1104.766   1076.242     1.015     0.872  21.5
       443   1413.310   1068.788     0.517     0.511 -66.9
       444   1733.950   1260.718    41.461     5.097 -29.0
       445   1968.605   1076.181     0.516     0.479  59.7
       446   2034.442   1089.313     3.025     0.515 -19.0
       447   1855.160   1126.054     5.705     0.666  80.4
       448   1023.989   1089.667     1.493     0.626 -30.3
       449   1467.287   1153.057     8.934     1.592  77.6
       450   1557.067   1090.948     1.228     0.697  57.7
       451    522.323   1086.293     0.617     0.529  21.6
       452     99.498   1110.911     3.129     0.467 -82.6
       453    974.024   1088.609     0.573     0.327  89.9
       454   1568.658   1095.022     0.774     0.742 -55.1
       455   1862.437   1092.201     3.122     0.497   1.0
       456    435.763   1106.514     2.647     0.589 -39.5
       457    323.549   1115.159     2.696     1.586  78.8
       458   2008.875   1096.071     0.740     0.650  -9.0
       459    212.982   1098.610     0.613     0.583 -31.0
       460   1257.474   1100.365     0.524     0.517  -2.9
       461   1119.409   1128.373     5.130     0.829 -42.4
       462   1080.029   1101.805     0.463     0.396   5.6
       463     90.956   1104.822     0.393     0.224 -89.9
       464   1109.327   1107.617     0.618     0.589  26.8
       465   1425.260   1115.645     5.170     0.604 -10.4
       466    154.764   1137.987     6.198     0.482  37.0
       467    518.374   1120.271     0.958     0.847  89.9
       468   1881.306   1121.762     0.915     0.855  16.3
       469    273.822   1116.144     0.666     0.588 -75.5
       470    422.551   1121.332     0.566     0.533  77.8
       471   1452.746   1121.789     0.630     0.430  81.4
       472   1846.477   1153.124     4.148     0.568 -69.1
       473   1982.256   1135.379     0.747     0.711 -60.8
       474    709.622   1137.250     0.566     0.536 -57.9
       475   1644.615   1215.690    12.510     1.604  40.7
       476   1618.203   1145.947     1.468     0.325  46.2
       477   1290.075   1146.757     1.071     0.818  13.5
       478   1507.126   1163.166     3.799     0.863 -59.4
       479    776.435   1142.584     1.222     0.407  14.5
       480   1906.147   1150.485     0.785     0.623  66.0
       481   1875.403   1150.286     0.610     0.481 -70.7
       482   1513.909   1156.246     0.652     0.606  41.9
       483    408.931   1151.724     0.479     0.446   6.8
       484     86.562   1159.136     0.596     0.580 -68.9
       485   1272.579   1164.675     2.063     0.578  18.3
       486   2007.259   1189.978     5.463     0.583 -34.7
       487   2034.939   1173.833     3.331     0.625  10.9
       488    813.558   1170.651     0.725     0.679  52.0
       489   1810.498   1173.857     0.601     0.548 -63.9
       490    416.846   1245.399     9.299     1.795 -52.5
       491   1652.172   1183.411     0.951     0.691 -83.3
       492    831.329   1188.041     1.139     0.482 -55.5
       493   1809.846   1183.872     0.662     0.584  68.0
       494   1173.833   1937.694     7.909     1.707   0.4
       495   1398.502    949.212   698.502   341.575  74.9
       496    194.016   1992.505     9.079     0.957  90.0
       497    624.813   1861.192     0.882     0.816 -27.6
       498    713.360   1857.564    14.713     4.822 -20.5
       499   1914.141   1828.452     3.289     1.362  31.1
       500   1260.507   1831.611     0.504     0.483  27.2
       501   1361.280   1831.274    20.734     0.516   6.1
       502   1745.679   1858.192     4.254     0.513  48.9
       503   1221.883   1906.338     0.622     0.583 -49.6
       504   1148.576   1856.796     0.495     0.432  -5.7
       505   1735.464   1240.219     0.573     0.550 -78.1
       506   1343.816   1846.219     0.935     0.796 -64.5
       507    197.440   1828.506     1.026     0.945   8.8
       508    663.949   1808.642     9.411     0.508 -21.9
       509    748.840   1834.105     0.640     0.622  17.4
       510   1850.376   1833.922     0.581     0.488 -76.1
       511    160.198   1249.645     0.479     0.417 -88.0
       512    322.821   1837.689     2.360     0.430 -89.7
       513    421.706   1797.709     3.350     1.365 -45.7
       514   1621.768   1240.215     1.027     0.611  -7.4
       515   1149.402   1244.827     0.503     0.476  -7.3
       516   1766.057   1829.747     0.953     0.854   6.9
       517     82.047   1239.531     0.572     0.564  66.5
       518   1967.068   1784.500     1.830     0.512  18.4
       519    285.015   1823.103     0.560     0.313 -89.6
       520    599.792   1801.999     0.409     0.243  -9.7
       521    246.964   1812.427     7.333     0.541 -18.2
       522   1725.427   1809.587     0.883     0.754  20.3
       523     76.960   1782.685     0.859     0.677  29.1
       524    487.356   1790.703     0.548     0.521 -60.4
       525    515.157   1742.096     2.987     0.910 -17.0
       526   1224.957   1455.083     0.468     0.435 -16.4
       527    890.928   1778.375     2.870     0.536   5.2
       528   1603.871   1787.501     1.935     1.018   9.6
       529   1941.078   1318.157     0.683     0.642   7.0
       530    936.748   1788.089    12.446     1.988  24.1
       531   1987.819   1786.344     0.525     0.514 -51.1
       532    659.650   1789.893     7.148     1.989 -68.7
       533   1779.124   1779.587     0.644     0.572 -40.1
       534   2032.859   1759.580     3.346     1.489  -7.1
       535   1492.774   1787.285     0.508     0.494 -89.2
       536    917.541   1781.801     0.498     0.399  -1.1
       537   1600.469   1779.196     0.514     0.499  82.9
       538    697.091   1242.611     7.620     1.646  31.3
       539    245.123   1756.509     0.502     0.413 -81.7
       540   1002.210   1776.466     0.662     0.609  21.7
       541    773.834   1317.215     0.514     0.486 -59.8
       542    861.194   1687.969     0.396     0.292  -6.0
       543   1181.036   1313.424     0.494     0.210  89.6
       544    373.000   1748.800     1.302     0.859 -68.6
       545   1888.610   1732.810     1.506     0.603  -1.5
       546   1069.625   1770.505     3.140     0.976 -22.2
       547   1371.763   1754.713     1.029     0.846 -79.2
       548   1300.635   1451.080     5.661     0.511  27.3
       549   1266.860   1750.305     0.895     0.828  25.0
       550    569.671   1739.290     3.614     0.529  -2.7
       551   1468.072   1709.812     0.690     0.679 -35.0
       552    849.008   1693.893     0.900     0.653  14.0
       553   1372.609   1730.296     0.506     0.488 -86.6
       554   1593.577   1682.422     5.602     0.618 -58.4
       555    632.389   1717.792     0.703     0.446 -34.2
       556   1454.720   1729.750     1.015     0.643  69.4
       557    983.434   1723.357     0.920     0.858  43.4
       558   1540.832   1685.705     5.357     0.859 -67.2
       559   1694.607   1692.765     0.597     0.450  60.9
       560    843.074   1713.903     9.163     0.532  21.7
       561   1605.876   1656.769     0.566     0.547 -16.6
       562   1324.950   1723.559     0.932     0.525  59.4
       563    150.205   1725.502     0.617     0.599  39.9
       564   1559.685   1703.222     2.336     0.886 -51.3
       565   1093.469   1716.275     0.961     0.517  65.4
       566   1005.489   1706.184     0.669     0.646  88.4
       567   1316.443   1719.157     1.080     0.483   1.8
       568   1510.242   1707.972     0.517     0.512  72.4
       569   1691.765   1704.375     1.848     0.710 -88.0
       570   1314.362   1703.382     2.907     1.169  -1.4
       571    986.184   1483.020     0.515     0.387 -88.1
       572   1952.494   1711.732     0.687     0.654  74.2
       573    595.021   1708.948     6.420     0.780   7.1
       574    865.054   1698.357     0.665     0.660 -15.9
       575    699.126   1692.098     2.868     1.533  60.7
       576   1638.912   1699.451     0.498     0.485 -88.7
       577    134.632   1634.434     1.836     0.787  71.1
       578   1832.832   1690.000     0.374     0.241  -3.4
       579    370.235   1464.859     0.916     0.520  43.7
       580    480.198   1655.252     6.649     1.014 -32.0
       581    542.286   1460.727     4.420     0.508  22.8
       582    123.886   1473.526     0.501     0.314  83.3
       583     62.963   1457.553     1.019     0.549  41.8
       584    294.782   1469.590     3.100     0.728  29.0
       585   1240.494   1623.738     1.375     0.478  58.6
       586   1968.672   1670.419     0.773     0.522  23.3
       587    172.458   1647.383     0.716     0.699  57.6
       588      7.135   1658.598     0.490     0.342  89.7
       589   1171.148   1484.904     0.432     0.418  13.4
       590   1266.887   1662.639     0.632     0.567  22.7
       591   1745.185   1660.112     0.645     0.604  -1.6
       592    123.910   1645.896     0.834     0.822 -66.5
       593      3.425   1625.707     1.571     0.260 -42.9
       594   1437.725   1556.449     0.497     0.446 -87.4
       595   1271.606   1483.919     0.647     0.563 -69.4
       596   1373.577   1549.594     4.511     0.661 -58.3
       597     16.782   1617.268     1.015     0.392 -15.6
       598   1191.379   1640.517     0.576     0.515  44.7
       599   1154.258   1639.654     0.509     0.485  60.5
       600    333.670   1637.120     1.173     0.392 -16.7
       601   1330.776   1630.280     7.028     1.421   9.4
       602    242.313   1486.716     0.926     0.869  45.1
       603    490.544   1598.679     5.611     0.633  89.1
       604     78.723   1630.971     0.619     0.598  59.7
       605    672.222   1567.755     9.067     1.601  -7.9
       606   1576.643   1622.954     2.389     0.859 -81.7
       607    133.041   1601.763     3.502     0.767  84.0
       608    988.978   1608.556     1.604     0.735 -80.3
       609   1810.445   1608.258    19.024     0.488   3.5
       610   1991.861   1613.155     2.450     0.598  30.5
       611    472.362   1552.168    10.948     0.523  26.6
       612   1392.737   1554.733     0.997     0.740 -67.3
       613   1736.097   1584.055     0.778     0.748 -12.6
       614    219.460   1594.112     3.203     1.361  48.2
       615   1205.254   1485.375     0.717     0.701 -84.9
       616   1950.167   1598.761     0.467     0.443 -61.0
       617    437.493   1548.360    15.523     2.396  87.0
       618    253.542   1571.034     2.616     0.779  74.9
       619   1710.854   1596.374     0.565     0.557 -82.1
       620   1260.307   1590.680     0.672     0.653 -44.3
       621    251.369   1522.716     0.483     0.451  -3.0
       622    836.717   1578.607     4.050     0.658   3.0
       623   1254.201   1578.750     0.433     0.401  89.4
       624   1955.352   1568.043     2.758     0.723  61.9
       625   1759.455   1564.370     3.340     0.526 -44.1
       626    225.573   1566.742     2.703     0.533  31.1
       627    292.882   1560.267     3.069     0.865  -5.5
       628    234.125   1562.479     0.604     0.594  24.7
       629   1304.816   1517.484     1.430     0.650 -28.8
       630    825.914   1509.749     5.989     0.507  32.7
       631   1404.158   1553.249     0.569     0.554 -64.1
       632    727.796   1343.234    16.278     3.297 -31.2
       633    465.886   1543.766     0.652     0.616  30.1
       634   1459.860   1510.564     7.929     4.452  74.1
       635   1989.354   1539.766     0.792     0.768 -54.4
       636    584.008   1539.992     0.641     0.449 -63.0
       637    924.197   1547.319     2.298     0.881   8.3
       638    463.496   1528.598     0.665     0.538 -67.4
       639    998.756   1528.645     1.841     0.958  25.1
       640     59.772   1477.286    14.080     1.478  25.9
       641     87.599   1518.816     9.142     1.438  56.0
       642    885.734   1525.678     2.063     0.511 -10.9
       643   1193.573   1527.198     7.504     0.704   4.9
       644    707.798   1509.035     1.684     0.628  59.7
       645   2022.692   1513.677     3.317     0.643 -41.7
       646   1439.073   1508.615     2.766     0.924 -33.5
       647    536.650   1503.892     0.519     0.472 -38.4
       648    963.380   1499.568     0.983     0.976  17.1
       649    648.040   1514.323     0.832     0.825 -59.6
       650   1178.943   1500.128     5.776     0.552  -7.9
       651   1810.892   1501.173     0.476     0.449 -42.7
       652    172.612   1357.997     6.248     1.889   6.3
       653    806.138   1496.045     0.574     0.562 -49.9
       654   1991.937   1493.879     0.669     0.636  88.9
       655   1752.045   1488.829     0.598     0.545  56.4
       656    929.772   1472.656     0.566     0.546  -1.7
       657    942.669   1482.806     2.685     0.608 -56.4
       658    564.107   1496.209     0.986     0.780 -39.5
       659   1831.920   1484.392     0.934     0.651  -4.7
       660   1477.060   1404.942     0.488     0.234 -84.5
       661    618.242   1480.791     0.862     0.794  67.0
       662    874.707   1475.037     0.873     0.825  55.5
       663   1299.808   1472.090     3.609     2.649  59.9
       664    126.753   1476.003     0.556     0.481  82.4
       665   1081.028   1476.771     0.744     0.711  87.3
       666    684.464   1470.666     4.847     0.628 -33.9
       667   1673.545   1430.276     0.721     0.665  43.5
       668    133.721   1463.236     0.519     0.505 -68.1
       669     45.871   1459.693     0.463     0.410 -80.0
       670   1053.214   1391.955     0.424     0.407 -24.2
       671   1835.841   1329.614     3.438     1.128 -25.2
       672   1559.119   1382.896     0.615     0.596 -47.2
       673    592.488   1444.416     3.100     0.898 -13.6
       674     94.022   1337.432     0.510     0.418  85.5
       675    659.708   1427.058     5.302     0.787 -60.1
       676   1906.247   1435.895     3.160     1.143 -52.2
       677     91.467   1401.055     7.972     0.525 -25.8
       678   1657.291   1418.539     0.507     0.486 -62.7
       679   2006.507   1428.043     0.674     0.662 -69.6
       680    529.605   1441.196     0.496     0.444  -4.5
       681   1886.581   1376.880     0.707     0.593 -87.3
       682    210.637   1413.945     7.019     4.241  60.3
       683    639.738   1417.817     7.764     1.041 -51.9
       684   1068.859   1410.320     0.631     0.618 -48.1
       685   1297.824   1420.096     0.624     0.600  59.1
       686   1056.114   1411.804     0.816     0.797   3.8
       687   1872.333   1415.350     5.069     0.526  14.8
       688   1478.761   1406.482     7.474     4.013 -71.8
       689   1049.313   1371.265     0.791     0.674 -26.1
       690   1312.796   1399.028     2.167     0.663  23.0
       691   1484.777   1375.620     0.664     0.486 -56.3
       692   1838.217   1392.658     0.532     0.502  24.3
       693    206.877   1393.007     0.557     0.492 -62.8
       694    372.025   1393.311     9.582     1.114  -8.5
       695   1310.135   1331.570    13.852     1.083  87.6
       696   1218.464   1334.632    13.933     5.822 -31.6
       697    678.026   1300.668    13.121     1.913 -59.3
       698   1060.462   1372.346     2.154     0.804  74.8
       699   1339.950   1374.670     2.552     0.586   1.3
       700   1187.343   1371.921     0.617     0.575 -15.9
       701   1186.418   1365.698     3.543     0.536  -7.6
       702    358.630   1376.995     0.940     0.859 -55.1
       703   1416.393   1325.834     0.613     0.598 -37.6
       704    332.575   1358.849     4.941     0.529 -61.3
       705    471.214   1359.509     0.551     0.513 -70.9
       706   1177.885   1270.660     0.533     0.508  80.9
       707    915.842   1332.380    11.110     1.930 -23.3
       708   1419.837   1355.901     5.310     0.514  57.5
       709    889.269   1339.806     0.717     0.693 -18.0
       710    685.322   1336.285     0.860     0.593 -84.0
       711   1911.678   1351.309     4.328     2.015 -85.1
       712   1872.148   1357.815     0.660     0.659 -45.6
       713     90.991   1291.288     0.828     0.763  43.2
       714    729.185   1345.391     1.241     0.477 -82.2
       715   1153.955   1348.112     1.198     0.712  83.4
       716    231.989   1339.011     1.580     0.822  58.6
       717    238.320   1345.405     0.544     0.522 -24.1
       718     87.569   1334.753     8.010     0.524 -23.7
       719    164.830   1326.532     5.186     0.970  84.8
       720    802.764   1328.792     3.041     0.764  77.4
       721   1283.239   1326.597     0.811     0.789  25.5
       722    794.850   1323.552     0.534     0.428  75.8
       723   1335.958   1315.010     0.413     0.274  -3.7
       724   1893.715   1322.240     0.843     0.744  82.4
       725   1099.548   1984.237     1.065     0.443 -54.7
       726    226.872   1273.588     0.738     0.690 -59.6
       727      2.174   1311.852     1.161     0.923  56.4
       728   1037.645   1925.217     0.724     0.688 -46.3
       729    713.774   1241.234     8.412     0.515  45.2
       730   1249.631   1300.197     0.630     0.577  82.6
       731    132.764   1295.506     0.543     0.538  -5.1
       732   1898.016   1200.677     2.360     0.340 -28.4
       733    919.270   1970.863     3.295     0.509 -13.3
       734    659.133   1260.932     0.764     0.717  34.9
       735    124.358   1286.597     0.652     0.633 -65.3
       736    338.493   1250.735     2.216     0.837 -13.1
       737    962.697   1260.024     2.097     0.626  33.6
       738   1658.722   1253.677    21.562     4.353 -21.2
       739    414.398   1260.937     0.625     0.545  85.8
       740   1830.709   1856.040    12.987     0.526 -13.2
       741    803.864   1252.738     0.448     0.343 -88.5
       742    822.496   1234.900     1.206     0.519 -36.5
       743   1165.645   1254.704     0.634     0.517  30.7
       744   1417.772   1250.129    36.211     4.775   3.2
       745   1739.865   1906.699     0.478     0.395 -81.1
       746    913.000   1872.960     0.505     0.461  -0.0
       747   1892.548   1239.628     6.051     0.508 -36.0
       748    256.433   1252.414     0.765     0.719 -49.7
       749    452.957   1235.295     0.691     0.540  78.2
       750   1341.196   1204.147     2.538     0.586  83.2
       751   1273.379   1227.230     0.960     0.813  57.4
       752   1477.097   1808.871     0.742     0.417 -62.6
       753   1584.349   1215.294     0.477     0.455  -6.9
       754    703.030   1217.615     0.487     0.171 -89.3
       755   1991.757   1883.023     4.211     0.537  -4.3
       756    469.924   1205.460     0.773     0.744  82.5
       757   1787.402   1216.110     0.643     0.635 -65.9
       758    808.821   1852.242     3.029     1.768  36.8
       759   1477.179   1225.794     5.456     1.620  29.0
       760   1412.482   1886.496     5.317     0.717  39.2
       761   1470.479   1202.828     2.979     0.832 -16.8
       762   1894.580   1875.645     0.819     0.805 -11.9
       763     28.494   1194.254     1.373     0.223 -36.1
       764    386.652   1962.309     0.561     0.547  33.6
       765   1398.883   1867.986     3.191     1.450 -55.4
       766   1790.582   1885.026     1.664     0.480  74.9
       767    872.644   1881.005     0.607     0.580  79.1
       768     90.452   1831.003     1.095     0.909  55.1
       769   1348.011   1884.465     0.887     0.286 -29.8
       770    497.312   1230.539     0.544     0.459 -51.9
       771   1753.334   1186.565     0.509     0.502 -89.1
       772    205.641   1854.993     4.519     1.155 -73.9
       773    164.481   2037.928     0.516     0.489  51.5
       774   1534.885   1881.358     1.744     0.886  84.8
       775    564.276   1933.649    14.952     1.107  75.0
       776   1866.987   2040.251     2.248     1.202  46.7
       777    979.778   1911.585     0.854     0.675  59.7
       778    169.416   1910.034     0.494     0.230  -4.2
       779   1189.933   1873.803     1.141     0.581 -69.6
       780   1680.320   1228.741     0.466     0.438   3.5
       781   1673.384   1818.977     0.754     0.710  62.8
       782    407.263   1227.105     2.594     1.262 -59.2
       783   1408.367   1928.831     0.520     0.490 -34.5
       784   1443.572   1915.037    46.213     1.106  54.0
       785    577.648   1911.274     0.725     0.716 -56.8
       786   1052.254   1972.544     0.611     0.593 -81.2
       787     13.260   1905.477     0.500     0.438  86.8
       788    995.013   2012.823    11.353     0.527 -58.9
       789    892.278   1955.032     0.498     0.478  -4.2
       790    558.355   1896.869     4.006     0.749  40.6
       791    851.824   1230.900     0.669     0.650  46.6
       792    335.316   1908.803     0.573     0.530  83.7
       793    996.489   1945.066     7.992     0.998  -6.8
       794   1885.257   1899.003     0.561     0.478  70.7
       795    345.333   1857.610     8.808     1.157   4.6
       796   1465.890   2027.128    15.857     1.176 -14.3
       797   1559.821   1870.165     3.576     0.748 -16.9
       798   1684.647   1932.986    14.555     1.766  77.1
       799    352.762   1929.690     0.614     0.592 -88.7
       800   1562.442   2009.832     0.770     0.732  56.5
       801   1347.357   1946.445     0.743     0.597 -23.3
       802   1497.341   2008.595     2.836     2.082   0.2
       803    613.925   1929.337     0.647     0.634  79.5
       804    742.756   1963.104     0.695     0.684  -2.4
       805   1112.976   1984.417     3.582     0.524  11.8
       806    978.620   1918.848     0.987     0.791 -73.0
       807   1164.926   1960.748     0.658     0.632  78.3
       808    420.024   1975.630     0.603     0.407  39.1
       809      2.785   2036.353     2.316     0.327  82.2
       810    568.330   2005.015     0.543     0.533 -26.5
       811    719.353   1896.598    14.996     1.560   0.7
       812    883.214   1225.717     3.470     0.510  21.4
       813    107.125   1965.279     0.571     0.323 -80.9
       814    279.073   1971.229     1.366     0.485   7.2
       815    525.138   1965.340    10.832     0.503 -26.2
       816   1020.725   2017.124     2.236     0.643 -74.8
       817   1390.539   1978.508     0.500     0.498  63.1
       818   1950.106   1937.014     0.820     0.802 -13.3
       819   1400.724   2028.857     0.586     0.447  15.6
       820    790.521   1955.339     0.511     0.469  32.0
       821    874.552   2016.115     8.140     3.102 -70.5
       822    322.417   2037.542     2.288     1.203 -57.5
       823   1452.514   1976.875     1.008     0.737 -37.2
       824     42.220   1981.903     0.763     0.747   6.6
       825   1784.146   1912.117     1.131     0.754  86.8
       826   1027.722   2028.502     2.610     0.553  66.6
       827   1796.013   2034.043     3.028     0.973  43.7
       828    796.144   2009.988     0.454     0.334   1.1
       829   1149.198   2039.900     0.735     0.299   1.2
       830    105.555   1988.174     1.978     0.937 -43.2
       831   1751.634   2000.485     0.550     0.521 -89.8
       832   1312.220   1993.821     0.507     0.492 -72.7
       833   1473.204   2010.076     1.201     0.749  30.9
       834   1661.668   2016.539     0.498     0.471 -89.9
       835   1207.109   1937.225     0.420     0.309  81.6
       836   1573.019   1227.250     0.687     0.634  72.6
       837   1529.177   1991.002     0.490     0.484  36.0
