#   1 NUMBER                 Running object number                                     
#   2 X_IMAGE                Object position along x                                    [pixel]
#   3 Y_IMAGE                Object position along y                                    [pixel]
#   4 A_IMAGE                Profile RMS along major axis                               [pixel]
#   5 B_IMAGE                Profile RMS along minor axis                               [pixel]
#   6 THETA_IMAGE            Position angle (CCW/x)                                     [deg]
         1   1097.930    114.726    19.960     3.516 -76.2
         2   1145.412     79.060    13.833     1.673 -53.2
         3    792.743     57.401    25.673     1.649 -25.1
         4    199.341     22.227     7.483     0.549  74.1
         5   1451.240     17.985    11.710     3.313 -27.6
         6   1818.524     15.759    12.634     4.003 -29.4
         7   1526.000     17.818     2.033     0.289  90.0
         8    864.784     10.106     7.041     0.520  -9.9
         9    761.983      5.415     0.761     0.694  86.5
        10   1526.588      4.461     0.959     0.784 -59.7
        11    849.512      3.219     5.702     0.416  -1.6
        12   1866.165      1.000   173.249     0.289   0.0
        13    624.873     16.128     0.692     0.681  17.0
        14    465.645     20.062     0.791     0.764 -74.8
        15     31.679     15.757     1.641     0.527  15.5
        16   1509.501     44.517     3.812     1.108 -48.5
        17    649.313     33.022     2.410     1.045 -26.2
        18     26.978     18.004     1.383     0.668  22.8
        19   1480.226     32.188     2.045     0.754 -38.7
        20   1385.578     25.774     0.911     0.542 -22.8
        21   1582.106     91.331    15.127     1.688  25.8
        22    173.834     82.451     6.833     1.160  79.1
        23   1218.213     27.212     0.717     0.673  89.0
        24     12.633     28.647     1.318     0.965  29.1
        25   1327.527     34.799     0.837     0.802 -80.3
        26   1227.251    166.782    47.011     6.410 -15.5
        27    801.000     35.696     0.667     0.289  90.0
        28    154.785     37.628     0.744     0.739  -8.2
        29   1727.790     35.924     0.467     0.448 -14.5
        30    983.095     33.184     0.391     0.289  79.1
        31   1907.675     46.278     0.689     0.654 -76.7
        32    913.144     44.785     1.690     0.580   1.2
        33     43.055     42.876     0.590     0.582  37.0
        34   1118.098     54.897     1.447     0.821  61.1
        35   1526.930     45.980     1.022     0.561  47.1
        36   1028.102     77.358     5.633     0.846  28.5
        37    195.276     49.137     0.747     0.653  -7.6
        38   1670.167     63.855     3.049     0.382 -53.5
        39   1526.325     55.604     1.095     0.456  83.9
        40   1104.008     70.855     8.049     1.058   2.1
        41    652.799     80.167     4.886     1.565 -23.7
        42    892.745     63.127     0.571     0.526  -1.4
        43   1188.813     88.782     2.918     0.535 -74.4
        44    835.128     62.824     0.381     0.334 -85.9
        45   1526.243     73.450     1.184     0.260  72.8
        46    367.752     91.002    10.878     0.505  14.2
        47   1002.976     98.516    10.987     0.528 -12.4
        48    200.318    189.865    32.112     2.500 -18.8
        49   1620.583     78.437     0.502     0.487 -50.8
        50    725.714    244.242    22.636     1.241 -56.0
        51    246.857     82.541     0.649     0.498  -1.4
        52    740.959    107.463     2.147     0.842  83.6
        53   1357.282     94.696     0.668     0.638 -85.2
        54   1148.687     97.797     0.721     0.706  24.1
        55    675.959    109.659     4.440     1.081   3.1
        56   1402.805    101.945     0.727     0.703  47.7
        57   1715.923     98.374     0.580     0.528 -51.3
        58    250.701    139.145     4.129     0.735 -66.4
        59    324.873    105.852     0.500     0.476 -58.6
        60    270.142    121.983     2.645     0.332  87.6
        61   1601.664    111.584     6.508     0.528   2.7
        62    245.174    111.931     1.378     0.759  85.0
        63   1299.405    121.572     3.384     0.513  24.1
        64   1176.143    114.698     0.598     0.560 -77.0
        65    572.054    115.999     0.635     0.615 -73.0
        66    270.080    134.274     2.559     0.257  88.1
        67   1339.988    122.123     0.757     0.701 -35.3
        68   1869.131    126.075     1.144     0.868  -5.3
        69    912.445    130.495     1.257     0.835  23.1
        70    605.447    129.678     1.071     0.442  48.0
        71   1458.335    130.691     0.789     0.729 -75.7
        72   1429.861    126.850     0.585     0.492  79.3
        73   1177.779    133.909     0.895     0.872 -35.1
        74   1607.734    129.493     0.528     0.511  75.7
        75   1974.811    130.745     0.661     0.627  81.2
        76   1729.959    130.143     0.686     0.236  78.8
        77   1187.658    133.413     0.752     0.736  14.6
        78     83.959    198.316    16.032     0.579  32.5
        79   1905.687    138.172     0.795     0.761  62.6
        80   1103.388    138.772     0.702     0.679  31.7
        81    220.216    153.088     3.619     0.943  16.2
        82    992.380    164.868     2.085     0.699 -69.7
        83   1219.623    161.115     4.171     0.516  31.0
        84    686.265    147.800     0.641     0.597  36.9
        85    244.884    147.528     0.534     0.317 -84.0
        86   1655.118    196.419     6.841     0.586 -56.0
        87   1879.559    186.762     8.542     0.517 -32.1
        88     97.485    294.923    17.140     2.058  65.0
        89    270.000    217.125     4.950     0.289  90.0
        90   1547.402    166.002     0.667     0.639  67.5
        91   1297.804    190.061     3.350     0.514 -63.2
        92    793.753    176.003     6.906     0.582  -2.6
        93    655.500    169.079     0.830     0.633  -2.8
        94    371.439    169.055     0.676     0.636  36.4
        95   1569.398    193.757     3.207     1.669  55.7
        96    340.794    187.258     1.730     0.794 -64.8
        97   1037.831    184.493     0.875     0.851  69.1
        98   1492.584    198.436     1.152     1.093 -58.8
        99    997.298    264.799     9.330     1.167  80.9
       100     71.750    253.507     9.353     2.021  48.1
       101   1605.635    227.535     4.675     0.559  59.5
       102   1563.942    201.743     3.255     0.521   2.0
       103    690.465    205.803     0.794     0.733 -43.9
       104    105.257    200.579     2.566     0.359  -8.7
       105    634.492    208.575     0.680     0.644 -42.8
       106    826.003    206.161     0.551     0.528 -23.9
       107    663.555    213.122     0.638     0.621 -17.0
       108    163.244    226.552     1.208     0.907 -70.4
       109   1139.053    219.108     0.761     0.742  62.4
       110   1229.339    223.223     4.460     0.539  -8.7
       111   1225.645    218.379     0.608     0.442 -63.8
       112    130.580    248.407     3.478     0.772  75.1
       113   1299.564    306.080     9.318     1.180  65.2
       114   1090.063    759.455    80.095    41.889  27.9
       115    178.701    239.967     0.714     0.653  50.1
       116    391.686    256.149     3.737     1.168  41.4
       117    873.892    295.724     7.056     0.682  64.3
       118    193.084    252.090     1.537     0.575 -50.8
       119   1445.140    239.364     0.483     0.344  81.9
       120   1287.395    250.679     0.996     0.775 -47.5
       121    795.436    254.124     3.109     0.504 -20.1
       122    220.087    291.013     8.029     0.494  42.0
       123    482.398    261.203     1.225     0.924  85.3
       124     83.824    254.344     2.105     0.533  -8.6
       125    750.433    251.885     0.659     0.641  29.4
       126    632.057    263.900     0.985     0.872 -50.0
       127    607.372    259.261     0.698     0.647  48.3
       128    731.121    271.594     3.162     0.774  20.1
       129    608.072    296.691     7.098     4.447   8.2
       130   1469.639    262.828     0.481     0.376   4.6
       131   1790.826    269.051     0.699     0.631  39.2
       132   1289.041    269.281     0.720     0.550 -64.1
       133     11.478    289.664     7.702     1.328  18.2
       134    883.751    283.255     0.941     0.844  -1.6
       135    610.816    281.697     0.881     0.754 -87.7
       136   1909.512    291.370     2.327     0.853  -8.0
       137    395.021    287.267     0.697     0.661 -88.9
       138   2031.970    289.206     2.551     0.524   7.7
       139   1662.920    293.154     0.632     0.620  56.4
       140   1676.262    309.515     8.436     1.936  12.1
       141    376.961    293.085     0.466     0.351  -7.3
       142    303.696    313.769     2.860     1.311 -76.8
       143   1395.005    306.007     1.416     0.828 -72.7
       144    641.959    296.785     2.031     0.562 -11.5
       145   1245.936    299.183     0.722     0.358  64.8
       146    645.284    313.632     2.703     0.700  50.1
       147    361.854    356.536     7.602     2.460 -88.1
       148   1451.474    307.856     0.616     0.553  50.6
       149   1559.417    303.935     0.493     0.247   2.6
       150    982.782    311.780     1.713     0.556 -10.0
       151   1279.926    334.981     3.104     1.279  61.8
       152   1556.940    337.992    17.611     0.821  -7.8
       153    671.165    318.625     0.652     0.617 -12.5
       154   1950.638    341.623    12.187     0.540 -14.8
       155    924.096    366.508     6.293     2.225  75.8
       156   1149.529    328.039     0.499     0.419   1.5
       157    972.388    328.968     0.487     0.446   2.6
       158   1294.488    398.092     8.380     0.581  79.3
       159    862.993    332.019     0.501     0.495  27.6
       160    913.705    334.889     0.457     0.330   3.1
       161    121.491    334.392     0.500     0.488   2.5
       162    279.022    347.468     1.431     0.834  55.2
       163    817.246    338.959     0.505     0.493 -74.6
       164   1834.097    348.799     0.805     0.773 -33.3
       165    668.021    350.057     0.756     0.514 -16.9
       166   1048.712    352.697     0.997     0.487  16.7
       167      7.667    516.264    15.958     0.923  90.0
       168   1011.474    362.410     2.874     0.634  -3.1
       169   1242.811    361.092     0.391     0.328   0.2
       170   2001.940    371.025     0.993     0.866  42.4
       171    934.913    369.234     2.053     0.414  19.0
       172    481.669    403.684     3.623     2.068  34.5
       173   1231.800    386.981     0.757     0.692 -67.0
       174   1322.448    384.168     0.704     0.571  75.0
       175   1155.664    405.115     5.327     0.500 -19.0
       176    505.060    391.690     0.693     0.666 -79.3
       177    968.800    410.838     7.043     0.535  17.2
       178   1959.322    416.352    11.196     0.540  13.3
       179    914.382    421.178     3.723     1.603 -40.2
       180   1181.196    416.581     2.077     0.856 -88.4
       181   1186.643    401.691     0.708     0.654  17.6
       182    262.374    400.448     1.324     0.303 -27.7
       183   1709.646    430.494     3.389     1.275 -75.2
       184     85.597    407.547     4.712     0.589   7.9
       185   1330.982    407.074     0.781     0.772  -2.3
       186    256.266    421.151     4.549     1.007  13.9
       187    784.856    413.134     0.818     0.636 -36.9
       188   1183.281    437.288     3.616     0.871 -86.5
       189    603.228    411.499     0.832     0.613 -40.9
       190   1573.961    445.969     5.676     0.670 -40.8
       191   1118.848    421.012     0.648     0.632 -15.0
       192   1611.869    414.772     0.422     0.335 -79.9
       193    686.897    434.141     1.864     0.646  74.5
       194    474.848    416.095     0.363     0.288 -14.5
       195     92.334    427.442     0.825     0.806 -87.5
       196    858.920    417.116     0.322     0.271  81.8
       197    996.924    426.028     0.865     0.759 -78.6
       198   1269.257    442.476     2.884     1.374  45.2
       199   1285.895    432.068     3.929     0.567  13.8
       200    830.937    425.955     0.563     0.382 -69.2
       201    794.826    427.029     0.564     0.379  88.4
       202   1690.483    448.357    17.499     0.602  -7.2
       203    511.681    429.938     0.469     0.411 -12.1
       204    789.501    438.097     1.172     0.802  27.2
       205   1958.216    433.757     0.553     0.480 -81.6
       206    772.857    444.695     1.445     0.822 -36.9
       207    385.904    439.160     1.651     0.691 -29.0
       208     82.021    436.948     0.700     0.678  -4.4
       209   1748.371    440.324     1.597     0.474 -52.5
       210   1601.693    470.727     3.670     0.848 -89.1
       211    529.981    449.943     0.475     0.430  -1.5
       212   1544.426    480.120     3.520     1.907  24.7
       213    499.200    471.067     0.925     0.863  67.2
       214   1341.904    471.901     6.227     0.719   0.4
       215    372.890    475.500     2.831     0.550   6.3
       216   1441.672    470.469     0.499     0.470  87.5
       217   1416.804    480.430     0.864     0.823 -68.7
       218   1983.455    476.169     0.638     0.571  86.5
       219    329.497    482.440     0.884     0.564  53.6
       220   1258.648    489.887     1.424     0.811   6.1
       221   1511.712    484.232     0.504     0.496 -78.3
       222   1449.331    489.712     0.721     0.711  57.4
       223    106.357    488.681     0.550     0.532 -72.0
       224   1439.435    487.194     0.635     0.624 -89.3
       225   1302.922    501.596     2.219     0.924 -40.3
       226   1116.264    498.249     2.538     1.292   9.2
       227   1105.970    548.509    16.889     0.807  28.0
       228   1013.222    537.896     6.237     1.366  73.7
       229   1143.505    498.049     0.627     0.599  89.4
       230     51.780    496.206     0.929     0.499  24.5
       231    285.285    505.244     0.956     0.893  67.2
       232   1408.766    503.207     0.622     0.610 -73.6
       233    944.190    539.607     6.342     1.524 -41.4
       234   1117.150    541.321     2.690     1.435 -75.3
       235    205.275    518.885     1.409     0.715 -17.5
       236   1258.270    511.395     0.584     0.308  49.9
       237   1543.946    519.317     0.576     0.467  87.1
       238    675.585    524.492     0.505     0.499 -23.5
       239    859.519    538.225     1.124     0.993  67.0
       240    357.627    659.607    27.130    10.862  33.5
       241   1628.917    552.412     4.143     1.852  36.2
       242    807.183    565.763     3.787     1.268 -69.0
       243   1886.738    542.907     0.843     0.625 -28.5
       244   1418.362    551.114     1.260     0.622 -62.7
       245     18.706    558.804     1.943     0.520 -81.8
       246   1945.950    558.484     0.869     0.752 -83.6
       247   1131.258    554.554     0.497     0.475 -83.5
       248   1689.519    593.266    10.455     1.807 -19.1
       249    741.820    582.677     4.072     0.691 -55.2
       250    380.691    604.612     7.294     1.405  46.8
       251    606.946    563.628     0.504     0.475 -84.7
       252   1562.374    570.304     0.933     0.762 -33.3
       253   1290.030    673.971    13.175     3.258  87.8
       254   1526.598    572.782     0.618     0.537  77.3
       255    528.162    567.872     0.371     0.331 -13.2
       256    262.292    578.570     1.591     0.759 -45.2
       257   1853.919    578.199     0.643     0.634  24.0
       258    169.158    581.910     0.670     0.616  53.7
       259   1439.975    586.058     0.853     0.642 -74.4
       260    841.854    594.460     3.487     0.955 -28.9
       261    858.337    589.649     0.632     0.606  63.8
       262   1965.011    587.008     0.330     0.325  -1.5
       263   1651.333    592.391     0.678     0.609  86.3
       264   1744.918    593.459     0.758     0.746 -14.5
       265    510.128    591.292     0.460     0.358  81.0
       266   1157.838    591.778     0.665     0.559 -49.1
       267   1238.123    654.896     6.929     1.297  73.6
       268    828.074    594.162     0.368     0.262 -89.0
       269   1549.028    600.560     1.652     0.645 -10.6
       270   1593.409    673.680    13.751     3.258  34.7
       271   1993.811    604.182     0.414     0.374  49.2
       272   1990.390    720.824    13.289     1.474  76.4
       273    649.264    625.845     3.002     1.136  33.8
       274   1982.307    610.507     0.500     0.461 -87.2
       275    661.703    677.247     7.289     4.242  52.0
       276    291.555    619.832     0.680     0.680  50.1
       277   1440.396    636.774     3.612     0.581 -44.2
       278    417.257    623.598     0.755     0.744  38.1
       279    832.719    621.657     0.545     0.512 -61.7
       280   1770.023    636.389     2.324     0.775  52.2
       281   1656.222    639.508     1.692     0.522  -3.0
       282   1860.377    672.174     5.254     1.727 -53.3
       283    918.079    653.972     3.651     1.497  19.5
       284   1576.384    642.908     0.489     0.284   8.0
       285   1963.193    702.053     8.597     1.777  42.3
       286   1983.133    652.115     0.428     0.417  86.0
       287   1181.895    671.646     2.334     0.870  60.6
       288   1602.650    726.286     6.171     3.434 -65.7
       289     74.839    653.180     0.572     0.553 -25.9
       290   1499.198    684.977     4.403     1.176 -51.4
       291    179.919    669.431    15.443     0.519   4.3
       292   1454.736    689.556     6.507     0.500  31.9
       293   1700.140    664.066     0.782     0.755 -35.0
       294    646.355    660.089     0.578     0.559 -54.4
       295    742.749    698.688     5.542     0.569 -60.8
       296   1366.039    687.957     4.816     0.941 -61.1
       297   1330.556    661.911     2.533     0.300   2.8
       298    215.044    663.970     0.634     0.627 -39.2
       299    712.434    662.740     0.496     0.438   6.5
       300   1493.773    702.272     9.413     3.238   6.9
       301    499.898    668.573     0.539     0.521   4.2
       302     99.718    672.310     0.854     0.841  72.6
       303    359.449    694.823     3.900     0.502  56.8
       304    422.778    758.909     9.333     1.270 -79.1
       305    173.927    677.751     0.770     0.705  40.6
       306   1997.135    690.645     1.801     0.587 -28.0
       307    967.805    684.311     0.707     0.688  -5.4
       308    221.916    711.756     2.692     1.030  51.5
       309    346.570    697.659     1.288     0.884  56.1
       310    918.302    688.815     0.838     0.802 -18.0
       311    230.196    694.583     3.951     0.607  -1.1
       312    197.223    706.839     6.361     1.699 -13.6
       313   1337.344    734.917     5.775     0.801  71.4
       314    228.143    700.655     0.687     0.645  82.0
       315    239.586    698.956     0.494     0.248   4.4
       316     78.442    711.840     2.329     0.981 -49.7
       317   1431.955    793.391    10.664     1.333 -65.3
       318     84.199    723.729     2.686     1.165 -44.4
       319    260.978    722.113     1.815     0.877  84.0
       320   1274.606    720.828     1.402     0.886 -25.6
       321   1726.337    711.191     0.568     0.399  51.2
       322   1518.313    710.838     0.476     0.355  20.1
       323   1772.626    708.559     0.505     0.475  57.2
       324    323.383    716.836     0.791     0.619 -87.1
       325    111.518    720.906     0.791     0.762 -28.6
       326   1935.336    721.241     0.749     0.704  55.0
       327   2010.269    725.266     1.535     0.412  53.0
       328   1503.790    774.013     6.282     1.401 -78.7
       329   1807.695    747.003     3.237     1.078 -62.0
       330   1737.817    734.592     0.607     0.595 -65.8
       331   1266.208    741.420     0.746     0.688   1.1
       332   1340.447    752.274     1.067     0.768  34.0
       333   1321.448    742.761     0.497     0.426   2.1
       334   1002.511    745.810     0.543     0.523 -56.9
       335    254.588    755.554     0.652     0.579 -83.9
       336    234.785    750.764     0.662     0.637  66.1
       337    913.332    791.357     5.361     0.671 -83.1
       338   1206.035    751.794     0.472     0.443 -89.4
       339   1115.989    752.864     0.374     0.306  86.0
       340    720.889    760.753     1.121     0.537 -70.6
       341   1585.751    802.626     6.183     1.004 -70.2
       342   1401.708    759.519     0.781     0.761  64.2
       343   1773.499    754.229     0.500     0.420   1.9
       344    280.553    760.731     0.725     0.709   6.0
       345   1418.265    767.696     1.363     0.878 -24.4
       346    560.935    764.665     1.057     0.691  47.6
       347   1452.525    762.390     1.132     0.381 -42.4
       348    699.674    759.273     0.469     0.445   7.3
       349    909.077    765.256     0.506     0.451 -85.1
       350   1729.644    770.452     0.622     0.592  40.5
       351   1778.983    772.403     0.725     0.713  40.3
       352    524.987    793.474     4.334     0.740  24.3
       353   1753.880    780.397     0.683     0.645 -40.2
       354    936.016    790.905     1.449     0.807 -52.0
       355    464.184    787.305     0.813     0.790 -13.3
       356    590.104    787.002     0.579     0.466  60.7
       357   1504.725    785.986     0.547     0.518  -7.2
       358    887.670    850.555     7.119     0.779 -55.9
       359    121.903    805.444     1.349     0.486 -48.9
       360   1278.504    796.427     0.500     0.494 -14.8
       361    830.702    796.559     0.497     0.457 -82.6
       362   1140.942    804.472     8.189     0.623   0.9
       363    130.276    807.964     1.110     0.427  72.0
       364    565.112    822.039     8.912     0.568 -11.7
       365   1339.575    803.948     0.494     0.269   0.5
       366   1088.848    812.311     3.396     0.715   8.4
       367   1736.691    805.773     0.462     0.419  -4.8
       368   1025.815    821.747     1.587     0.925 -68.6
       369    648.329    815.261     0.851     0.817   5.3
       370   1014.290    814.450     0.719     0.703 -61.7
       371    178.943    818.459     0.736     0.388 -31.4
       372   1470.168    846.927     7.975     0.671 -25.3
       373   1647.889    826.589     1.010     0.631  41.3
       374    870.042    826.577     0.668     0.629  78.4
       375    476.594    835.161     0.957     0.922  19.8
       376   1778.258    827.821     0.526     0.523 -63.6
       377     12.065    836.132     0.564     0.555  70.8
       378   1256.828    838.846     0.514     0.441   2.1
       379   1886.326    848.569     0.533     0.499 -87.6
       380    821.203    894.191     7.940     2.429 -57.8
       381    686.238    872.359     4.862     0.947  49.3
       382     80.949    848.882     0.438     0.396 -89.0
       383    918.752    871.426     6.283     0.496 -20.1
       384    546.057    858.490     0.532     0.506 -67.1
       385    588.073    856.814     0.449     0.337  80.9
       386   1685.735    860.171     0.446     0.403  18.5
       387   1285.641    866.094     0.894     0.761  23.1
       388   1250.046    863.361     0.555     0.541  68.5
       389    679.324    860.476     0.517     0.465  76.3
       390   2019.290    858.279     0.470     0.432 -41.1
       391    318.122    896.006     3.991     1.775  84.4
       392    946.767    927.834     7.748     4.292  62.1
       393    643.517    885.436     4.800     0.515  22.9
       394    238.173    880.542     2.006     0.884 -26.4
       395   1548.990    877.587     1.573     0.530  18.5
       396   1441.655    873.128     0.496     0.313 -21.6
       397   1927.484    875.933     0.500     0.497  12.9
       398    646.221    879.337     0.694     0.588  47.1
       399   1966.302    872.077     0.459     0.266   2.1
       400   1459.681    941.862    13.994     6.848 -11.2
       401   1055.185    885.911     6.394     0.513 -11.2
       402    277.552    888.172     0.817     0.576 -70.1
       403   1865.750    887.388     0.777     0.669  80.8
       404    587.594    892.177     0.761     0.733  85.7
       405   1763.635    884.111     0.483     0.312   5.5
       406    638.359    894.401     2.983     0.518  16.1
       407    525.084    908.037     5.512     1.356  12.6
       408    415.517    904.906     8.147     1.956   7.1
       409   1147.291    897.000     1.039     0.504  64.0
       410   1861.938    902.596     0.656     0.645 -64.5
       411   1648.581    920.789     3.220     0.586  65.5
       412   1844.806    899.146     0.440     0.434 -30.5
       413    893.159    903.693     0.894     0.733 -33.0
       414   1364.721    908.270     0.890     0.787  38.9
       415   1256.623    900.267     0.883     0.267 -24.8
       416    780.491    928.514     4.360     0.501 -44.1
       417   1268.496    912.833     0.935     0.716  71.7
       418    128.521    925.829     6.041     0.538 -23.3
       419   1788.657    914.525     1.161     0.782 -52.4
       420   1073.797    911.663     0.849     0.636 -20.1
       421    601.653    909.791     0.477     0.436   8.1
       422   1594.024    996.688    13.862     0.732 -52.0
       423   1273.234    925.403     2.266     0.766   6.3
       424   1580.328    951.000     5.098     0.506 -51.7
       425    691.949    924.982     0.676     0.654  62.5
       426    240.570    924.439     0.795     0.761  -8.8
       427    648.668    993.530    14.574     1.910 -21.7
       428    492.327    972.064     3.072     0.904 -83.9
       429    761.049    948.469     0.693     0.634 -38.0
       430   1262.307    948.954     1.034     0.236  58.9
       431    674.915    959.734     3.071     0.657  29.7
       432   1029.567    953.971     1.048     0.638  40.9
       433    829.520    947.347     0.501     0.474  14.5
       434    851.144    955.475     0.679     0.665  73.0
       435   1814.918    974.850     3.021     0.514  79.9
       436     30.521    954.594     0.501     0.490  19.9
       437   1139.566    972.474     1.373     0.765 -88.7
       438   1766.076    965.678     0.710     0.689  25.3
       439     88.745    979.216     2.205     0.752 -43.2
       440   1825.984    967.165     0.417     0.351  88.0
       441   1701.398    973.022     0.999     0.741  30.9
       442   1290.396   1081.406    15.072     4.197 -75.6
       443    437.591    969.424     0.531     0.452 -45.9
       444   1182.974    975.879     0.600     0.544 -48.7
       445   1427.032    982.359     0.760     0.743  67.9
       446    835.847    992.919     2.621     1.252  37.8
       447   2002.517    990.456     4.251     0.801 -23.9
       448   1251.562    983.580     0.830     0.748 -13.6
       449    222.345    985.103     0.845     0.782  56.0
       450   1127.676    985.043     1.226     0.299 -52.1
       451   1149.997   1055.787     9.752     1.901 -54.7
       452    471.264   1047.118     7.488     0.857 -62.1
       453   1069.290    993.409     0.721     0.677 -13.4
       454   1724.907    996.943     0.815     0.805 -83.8
       455    436.778   1000.393     0.787     0.578  75.0
       456    765.360   1001.928     1.389     0.485 -39.3
       457   1939.078   1030.897     4.147     0.543 -73.4
       458    624.658   1002.345     0.990     0.271  56.2
       459    524.262   1013.096     4.186     0.453   2.2
       460   1160.037   1011.026     0.346     0.329  14.6
       461      4.217   1015.904     0.571     0.524   8.9
       462    683.732   1027.306     0.626     0.578  53.1
       463   1567.643   1026.950     0.479     0.218  -2.5
       464    125.243   1032.080     0.477     0.399 -20.6
       465   1690.395   1145.787    16.706     5.783  62.8
       466    322.615   1108.829    10.333     4.778 -44.0
       467    390.760   1043.506     0.732     0.630  71.1
       468   1091.302   1137.257    11.458     0.881  86.5
       469   1788.105   1042.298     0.706     0.680 -48.4
       470   1429.970   1040.921     0.570     0.554  29.7
       471   1544.566   1043.304     0.512     0.490  -1.6
       472    763.962   1048.219     0.649     0.608  76.3
       473   2038.947   1044.217     0.744     0.409  -4.9
       474   1886.473   1054.379     2.544     0.810  10.3
       475    576.834   1049.126     0.454     0.442  -3.7
       476   1182.833   1103.370     6.843     0.505  61.3
       477    810.378   1048.921     0.487     0.266   6.2
       478   2030.131   1054.859     0.410     0.397 -68.1
       479     28.753   1065.716     1.111     0.540 -68.3
       480    488.324   1064.594     1.676     0.804  -4.8
       481   1049.893   1056.185     0.389     0.308  83.5
       482    418.625   1086.191    12.567     2.819  13.0
       483      4.373   1069.260     2.295     0.600  13.3
       484   1332.037   1065.122     0.486     0.368 -87.4
       485   1006.420   1105.416     7.840     0.534 -41.9
       486   1158.758   1068.047     1.558     0.603  25.4
       487   1724.395   1062.012     0.568     0.309  -0.3
       488   1441.490   1066.359     0.508     0.488 -39.9
       489    883.867   1070.781     0.786     0.695   6.8
       490    861.837   1068.862     0.624     0.605 -76.7
       491    694.357   1064.425     0.527     0.443 -50.2
       492   1971.574   1072.203     0.600     0.554  87.4
       493    443.431   1068.825     1.425     0.283  10.9
       494   1502.217   1085.635     0.593     0.566  52.7
       495   1306.435   1088.597     0.827     0.784 -18.2
       496   1472.871   1090.612     0.492     0.424 -86.6
       497    554.356   1091.979     0.479     0.175  -0.1
       498    313.830   1095.934     0.528     0.522 -41.2
       499    212.956   1098.551     0.633     0.594 -62.4
       500   1952.852   1102.143     0.404     0.350  72.4
       501   1763.688   1106.958     0.664     0.603 -48.2
       502     17.308   1109.645     0.553     0.490  -4.6
       503    140.129   1119.495     1.103     0.885 -26.0
       504    351.400   1114.220     0.500     0.488 -70.4
       505    206.269   1141.202     2.124     0.776  77.1
       506   1114.927   1166.972    10.849     0.484 -30.8
       507   1149.183   1122.219     0.640     0.594   9.7
       508    801.516   1191.439     8.511     0.632  85.5
       509   1326.747   1141.274     1.899     1.102 -49.9
       510   1192.630   1128.671     0.552     0.527  27.2
       511   1299.450   1129.125     0.773     0.470 -42.0
       512   1175.767   1129.284     0.510     0.405 -67.0
       513    858.427   1128.956     0.495     0.206  -0.0
       514    947.703   1137.319     0.784     0.578  -1.4
       515   1000.501   1136.886     0.592     0.553  29.5
       516    384.120   1158.213     2.186     0.656 -73.6
       517   1577.339   1145.126     0.532     0.504 -90.0
       518    256.371   1150.208     0.829     0.727 -16.1
       519   1475.401   1150.519     0.549     0.482  70.2
       520    313.864   1151.535     0.500     0.396  84.5
       521    532.468   1161.550     0.804     0.721 -26.1
       522    798.089   1169.165     3.399     1.014  -3.0
       523    896.686   1195.504     4.581     0.836 -59.8
       524    726.776   1172.905     0.736     0.689 -35.1
       525   1138.313   1168.434     0.645     0.459  81.7
       526   1271.223   1167.650     0.477     0.416  87.1
       527   1083.519   1173.507     0.661     0.644 -14.2
       528    894.115   1224.134    10.801     3.490  34.7
       529   1145.184   1214.959     5.941     0.584  59.8
       530   1794.131   1176.992     0.769     0.465 -89.8
       531    545.264   1190.780     2.082     0.469  64.9
       532    900.564   1247.681    13.128     0.671  33.7
       533   1903.415   1207.176     3.797     0.643 -84.4
       534    878.685   1182.983     4.191     0.815  -6.2
       535     52.396   1185.707     0.927     0.511 -49.7
       536     25.066   1844.133     0.506     0.320 -39.1
       537   1512.658   1024.974   665.142   121.005  88.5
       538    267.201    205.897   225.240     3.907 -89.9
       539    194.017   1992.570     9.126     0.958 -90.0
       540    616.630   1751.310     0.664     0.636  83.2
       541   2015.199   1723.767    17.871     0.663  46.3
       542   1504.409   1663.532     0.878     0.683 -75.0
       543    259.326   1743.404     0.526     0.522  76.4
       544    334.283   1555.084     0.828     0.666 -82.2
       545    750.700   1529.652     0.571     0.516   9.5
       546    630.274   1717.213     0.447     0.409  -8.8
       547    356.240   1720.985     7.413     0.481  16.0
       548   1269.929   1726.257     0.828     0.750  88.9
       549   1912.182   1727.693     0.604     0.590  67.3
       550    743.420   1548.545     2.797     0.889 -66.0
       551    458.149   1695.722     0.448     0.356 -87.1
       552   1066.345   1710.689     0.785     0.761  16.9
       553   1125.344   1661.214     0.760     0.689 -64.1
       554   1595.352   1701.739     0.957     0.895 -43.7
       555    250.891   1717.431     3.455     1.468  -4.9
       556   1474.357   1548.669     6.905     0.896  31.3
       557    324.016   1551.631     0.817     0.746 -64.1
       558    641.230   1677.145     6.547     0.512   3.4
       559    279.845   1664.275    10.057     1.065 -62.9
       560   1779.109   1573.423     2.826     0.870 -74.9
       561    850.285   1633.955     0.505     0.485  17.9
       562   1183.274   1699.446     6.656     0.597 -77.6
       563    575.941   1677.143    10.844     2.742  10.8
       564   1507.995   1704.899     0.766     0.500 -69.4
       565   1750.311   1681.996    11.137     1.408  60.5
       566   1649.692   1636.238     0.462     0.426  -2.8
       567   1694.398   1692.747     0.602     0.422 -14.0
       568   1102.596   1671.746     0.974     0.741 -86.1
       569    970.310   1667.734     1.258     0.975 -27.9
       570   1048.599   1571.508     0.565     0.508  61.6
       571    455.199   1516.150    20.968     2.614  32.5
       572    704.379   1686.463     0.904     0.753  -8.9
       573    527.109   1626.927     0.367     0.334  21.5
       574    344.288   1612.982     0.584     0.548 -59.1
       575   1310.151   1652.317     0.656     0.636  28.9
       576    258.763   1681.816     1.952     0.494 -58.8
       577    461.959   1657.043     2.773     2.128  86.9
       578   1552.157   1665.767     0.571     0.488  63.0
       579    380.386   1677.824     0.871     0.759  72.6
       580     71.890   1627.533     7.691     0.538 -36.7
       581    724.242   1606.711     7.042     0.727  12.0
       582    405.577   1635.745     0.513     0.492  -8.6
       583   2021.060   1673.798     1.085     1.002  33.7
       584    126.605   1671.995     0.489     0.228   0.3
       585    494.677   1677.479     0.501     0.467  79.7
       586   1297.103   1672.162     0.505     0.496 -72.3
       587    717.021   1650.201     0.494     0.349  88.2
       588   1169.609   1658.028     0.851     0.642 -54.5
       589    191.860   1658.550     1.825     1.012 -49.0
       590    255.369   1638.167     0.549     0.481 -82.5
       591    874.246   1640.395     1.117     0.704  65.2
       592   1413.921   1625.144    17.899     0.514  12.3
       593   1220.769   1627.926     1.082     0.898 -74.9
       594    121.847   1596.175     0.569     0.552  89.2
       595   1787.271   1592.880     7.126     0.639 -13.0
       596   1051.224   1582.738     0.565     0.420  88.9
       597    629.687   1622.010     1.065     0.534 -26.5
       598   1516.267   1573.855     0.800     0.782 -20.2
       599    944.346   1623.290     5.013     0.502   8.8
       600    624.983   1597.484     9.765     4.813  46.0
       601   1207.815   1565.641     3.191     1.813  -2.8
       602    139.022   1609.245     0.862     0.812  14.5
       603   1951.369   1539.662    57.181     0.641 -33.1
       604   2034.257   1602.351     3.339     0.337  14.5
       605   1450.632   1604.353     1.256     0.907 -21.6
       606    534.961   1600.877     0.372     0.238  86.3
       607   1456.589   1594.387     1.064     0.852 -62.4
       608    310.565   1596.125     3.334     0.786  54.4
       609   1940.927   1596.446     0.877     0.672  16.2
       610   1295.676   1572.073     0.678     0.643  27.9
       611    876.786   1596.033     8.441     0.493   6.3
       612    754.580   1588.472     2.395     1.087  34.2
       613   1934.078   1588.440     0.862     0.748  52.9
       614    217.378   1586.001     0.684     0.650  36.4
       615   1287.573   1582.583     0.501     0.494  72.6
       616   1182.807   1563.428    11.138     0.735 -33.4
       617    830.817   1541.472     3.206     1.562  47.9
       618   1880.409   1564.367     7.226     0.621  79.5
       619    515.889   1573.101     0.519     0.495  50.8
       620    566.524   1571.434    13.613     1.222   0.9
       621    276.467   1562.033     0.662     0.429 -59.3
       622   1207.231   1555.986     0.699     0.693  38.8
       623   1730.792   1501.007     1.247     0.715  55.3
       624    941.540   1526.236     8.370     0.556 -34.5
       625   1860.064   1569.234     0.627     0.583 -26.7
       626   1327.040   1553.491     0.718     0.635   2.5
       627    447.618   1363.096     0.724     0.702 -42.3
       628   1810.911   1501.245     0.533     0.453 -71.0
       629    406.792   1333.129     0.537     0.511  43.7
       630   1912.279   1523.769     0.449     0.437  -5.9
       631   1669.408   1529.281     0.537     0.473 -58.2
       632   1055.294   1537.916     0.652     0.627  -5.7
       633   1364.085   1537.648     1.494     0.506 -12.9
       634    613.688   1518.494     5.063     0.999  25.0
       635   1682.860   1519.144     0.673     0.581 -65.9
       636      5.360   1515.405     8.459     0.939  75.8
       637    553.899   1453.977     1.546     0.789 -43.7
       638   1441.173   1498.964     0.947     0.849 -47.1
       639   1023.635   1429.100    25.352     0.524 -30.9
       640    941.097   1491.641     6.127     0.790  58.0
       641    956.658   1458.111     0.520     0.494  66.5
       642   1685.950   1448.122     5.200     2.372  82.7
       643    290.896   1471.528     0.531     0.505 -85.9
       644    822.787   1479.808     2.135     0.525 -45.9
       645   1225.593   1468.322     1.099     0.558 -57.9
       646   1388.192   1458.011     0.592     0.526  72.3
       647   1686.296   1470.949     6.528     1.465  28.6
       648    701.249   1495.670     0.665     0.615  61.6
       649    175.780   1480.859     6.036     0.521  52.0
       650    225.303   1483.465     0.755     0.682  65.5
       651   1453.439   1475.484     2.447     0.874 -71.0
       652    655.579   1448.172     0.508     0.467  -8.1
       653   1314.455   1487.556     0.617     0.610 -81.3
       654   1090.243   1468.941     4.760     0.730 -37.3
       655    311.682   1476.596     1.305     0.995  11.1
       656    985.959   1482.776     0.570     0.417  -3.5
       657   1262.738   1439.503     0.836     0.800  17.1
       658   1700.369   1460.737     0.484     0.439  10.2
       659   1400.868   1413.734     7.582     0.544  75.4
       660    598.661   1431.824     3.917     0.499  11.8
       661   1591.961   1445.742     0.634     0.619  57.3
       662     84.793   1417.130     2.939     0.545  51.2
       663    967.516   1367.745     0.657     0.648  85.8
       664    235.889   1382.546     0.500     0.311 -83.6
       665   1317.940   1443.601     3.254     0.479   6.3
       666   1374.758   1399.290     1.417     0.879 -58.7
       667     19.843   1367.770     0.732     0.696  37.8
       668    679.979   1415.229     0.548     0.502   5.8
       669    535.339   1378.276     0.628     0.565 -87.4
       670    515.983   1434.876     2.458     1.124 -68.7
       671    922.087   1437.657     2.555     0.570  81.5
       672    226.988   1423.455     7.401     0.734 -53.6
       673    863.045   1432.230     0.731     0.714 -66.1
       674    174.976   1383.731     0.529     0.327  88.4
       675    703.342   1375.587     5.254     0.492  46.3
       676    622.101   1409.232     0.422     0.301  89.1
       677   1800.384   1416.106     2.840     0.522 -54.7
       678   1505.198   1424.109     0.756     0.329  12.2
       679   1712.994   1404.088     0.642     0.637  44.8
       680   1346.335   1407.530     0.681     0.382  39.9
       681    555.461   1370.205    16.648     0.659 -41.5
       682   1499.062   1386.530     0.499     0.240 -88.9
       683    495.853   1405.753     0.931     0.493  82.6
       684    502.370   1424.202     0.501     0.483  27.9
       685   1415.281   1415.674     1.208     0.721 -89.0
       686    740.529   1341.378     0.853     0.475 -57.1
       687    309.979   1414.755     1.812     1.011 -84.0
       688   1904.437   1389.256     0.741     0.718 -89.4
       689   1301.316   1398.454    27.799     0.528  -4.2
       690   1990.328   1408.739     3.089     0.847 -39.7
       691    786.772   1396.330     2.069     0.563 -15.4
       692    305.336   1403.662     0.533     0.504 -39.7
       693    290.482   1401.260     1.316     0.812 -70.5
       694   1645.898   1379.009    12.662     1.932  29.7
       695    398.645   1393.084     0.705     0.679 -57.9
       696   1843.746   1392.621     0.549     0.542  19.0
       697   1444.039   1331.681     1.137     0.674 -47.6
       698    742.081   1369.224     0.697     0.689  54.8
       699   1109.554   1377.041     0.497     0.198   0.5
       700    875.930   1902.663    16.964     0.556  13.3
       701   1419.149   1367.256     0.492     0.478  75.6
       702   1274.117   1371.561     0.800     0.774 -73.1
       703    102.270   1357.526     0.769     0.666  63.7
       704   1669.108   1354.570     3.961     0.911 -30.5
       705   1084.685   1354.823     0.529     0.502 -74.0
       706    864.578   1349.078     5.543     0.524   7.1
       707    640.286   1324.742     2.004     0.863  34.1
       708    536.322   1315.494     6.482     0.768 -27.4
       709    926.564   1321.511     0.640     0.627  21.4
       710   1038.236   1334.546     0.652     0.604 -16.4
       711     51.860   1335.930     0.622     0.512  61.7
       712   1394.560   1333.151     1.246     0.716  62.5
       713    368.743   1335.669     2.388     0.485   6.2
       714   1149.483   1339.871     0.880     0.804  45.9
       715    685.201   1336.288     0.834     0.747  72.8
       716    101.038   1742.065     0.543     0.515  54.1
       717    422.900   1229.642     5.039     0.696  73.7
       718   1046.046   1327.049     0.705     0.662 -67.9
       719   1450.984   1964.611     0.783     0.772  38.9
       720   1000.033   1284.334     6.955     0.897 -27.8
       721    863.472   1275.289     9.159     0.806 -64.0
       722   1015.083   1955.863     1.222     0.790 -81.4
       723    387.092   1888.077     0.383     0.287 -83.7
       724    469.294   1282.834     1.328     0.722  61.1
       725   1949.046   1735.218     1.469     0.805  -9.5
       726   1448.737   1948.910     1.670     0.902  30.4
       727    415.168   1183.637     0.531     0.495  76.9
       728   1439.451   1305.970     0.733     0.589 -56.6
       729    332.840   1739.838     0.690     0.646 -43.7
       730    413.607   1279.800     1.602     0.641  13.6
       731    630.150   1290.328     3.080     0.663 -29.8
       732   1534.987   1281.464     1.097     0.847  45.3
       733   1501.153   1300.141     0.368     0.341 -31.6
       734   1456.181   1291.080     0.490     0.457  43.3
       735   1431.146   1292.854     0.684     0.665 -50.5
       736   1421.783   1294.295     0.612     0.548  72.0
       737    979.089   1282.663     2.979     0.760 -11.9
       738   1586.929   1280.431     5.824     1.634  80.1
       739    656.987   1764.744     0.797     0.706  31.5
       740    296.365   1916.834     0.809     0.515  17.5
       741    683.924   1728.995     5.649     0.602 -86.8
       742    750.000   1775.727     1.149     0.636 -57.8
       743    370.678   1764.115     8.349     0.533 -86.0
       744   1797.562   1206.742     1.563     0.531 -19.1
       745    365.433   1265.006     4.941     3.504  22.0
       746    480.985   1219.817     0.551     0.535  -9.3
       747   1411.459   1245.320     0.499     0.466   6.0
       748    618.381   1271.568     2.631     1.761   5.6
       749   1866.136   1264.006     0.802     0.159  -1.8
       750    412.378   1235.289     3.076     1.130 -75.4
       751   1412.161   1196.976     0.497     0.477  84.5
       752    553.892   1246.825     5.548     1.411 -42.3
       753   1189.908   1231.817     0.681     0.631  -2.7
       754    785.139   1257.613     0.544     0.511 -15.0
       755    784.058   1192.639     0.553     0.541  10.5
       756    418.219   1245.079     0.783     0.765 -74.0
       757    936.892   1246.761     3.404     0.705 -70.2
       758     39.275   1799.088     0.474     0.257  19.0
       759    947.903   1218.124     4.287     0.891  58.9
       760   1363.955   1225.490     2.392     0.848   9.9
       761    932.441   1332.058     0.497     0.406   3.2
       762    729.397   1229.957     1.571     0.806  11.2
       763    934.655   1735.362     0.738     0.723  87.7
       764     97.244   1891.810     0.542     0.540  29.2
       765   1844.072   1216.421     1.093     0.500  46.0
       766   1584.528   1759.575     0.702     0.694  38.0
       767   1595.712   1914.558     0.779     0.768  89.3
       768   1790.124   1215.525     0.535     0.324  82.0
       769    920.603   1223.965     0.619     0.617 -46.8
       770    520.587   1828.566     0.675     0.487  81.1
       771    936.880   1198.048     0.801     0.293 -76.8
       772   1438.433   1195.170     1.719     0.865  20.1
       773    151.817   1196.412     1.201     0.798  74.3
       774    441.878   1332.094     0.617     0.612  30.5
       775   1810.125   1934.107     0.599     0.589  46.6
       776   1222.077   1739.533    13.513     1.602  29.3
       777   1103.633   1757.648     0.659     0.536 -88.7
       778   1887.669   2014.799     2.016     0.774  71.1
       779   1709.729   1594.548    55.835     0.727 -10.2
       780    432.062   2015.409    26.792     0.599  33.7
       781    970.229   1741.344     3.642     0.755  51.3
       782   1646.775   1735.463     0.508     0.470  65.7
       783    472.779   2029.108     0.791     0.707  78.5
       784   1301.285   1765.105     5.268     1.074 -11.5
       785     57.431   1512.061     5.744     1.004  35.6
       786    839.477   1770.295     0.916     0.751 -57.7
       787    735.954   1777.924     0.817     0.768 -80.3
       788    724.345   1938.642     0.491     0.463  49.1
       789   1610.606   1925.664     0.490     0.471 -12.6
       790   1484.520   1897.213     0.726     0.628 -68.6
       791    711.956   1955.615     3.913     0.593  82.7
       792     80.799   1678.750     0.807     0.784 -54.3
       793     40.384   1793.070     0.780     0.681  87.1
       794   1341.487   1733.366     0.500     0.482   0.6
       795   1984.504   1974.190     0.562     0.362 -20.5
       796     62.193   1902.776     2.487     0.555  74.7
       797    178.386   1319.825     6.342     1.525 -31.8
       798   1041.589   1909.039     5.650     0.612 -78.0
       799   1684.723   1978.865     1.900     1.794  75.8
       800    888.465   1976.868     0.830     0.813 -16.1
       801   1898.804   1785.104     0.454     0.353 -50.6
       802   1722.210   1789.620     2.093     0.803 -29.4
       803    644.363   1971.792     0.482     0.404   7.0
       804   1896.591   1856.224     1.100     0.318  61.4
       805    458.809   1784.930     1.828     0.682 -38.3
       806   1008.089   1791.931     0.512     0.501  49.6
       807   1778.652   1917.009     2.122     0.546  38.3
       808   1355.006   1880.366     1.197     0.531  71.7
       809   1495.066   2034.918     0.654     0.644 -72.4
       810    305.884   1817.793     0.813     0.773  89.8
       811      8.309   1910.427     7.331     0.415 -51.4
       812   1101.397   1811.207     0.680     0.646  89.4
       813   1155.512   1862.847     0.704     0.681 -78.7
       814     54.804   1820.138     0.752     0.746  50.5
       815   1893.152   1799.350     0.765     0.757   0.3
       816   1158.209   1964.039     0.679     0.648 -11.8
       817   1322.310   1566.249     0.662     0.608 -61.8
       818    438.283   1805.937     6.058     0.512 -24.4
       819    844.543   2005.673    28.387     9.328   7.4
       820    142.869   1811.162     2.589     0.509  62.7
       821   2035.309   1766.937     1.043     0.222   7.7
       822    718.426   1997.212     5.433     0.930 -12.8
       823   1087.925   1948.264     4.516     0.502  31.0
       824     36.669   1846.452     0.518     0.468  77.9
       825   1033.187   1916.078     0.581     0.543  58.3
       826     45.068   1236.064     0.397     0.390  56.7
       827   1771.432   1896.103     0.970     0.831 -11.9
       828    589.954   1853.757     9.399     0.518 -24.8
       829   1823.580   1917.524     0.677     0.532 -16.4
       830   1097.939   2020.491     0.606     0.543  26.2
       831    366.841   1831.075     0.847     0.636  66.2
       832   1025.622   1932.408     0.573     0.556 -87.8
       833   1440.732   1865.312     2.281     1.236  13.0
       834   1832.965   1856.194     0.899     0.656 -84.0
       835    596.616   1836.774    14.551     0.576 -36.6
       836   2036.666   1988.781     2.499     0.336  32.3
       837    670.676   2015.043     3.020     1.124 -67.2
       838   1824.370   1566.383     0.695     0.672 -59.2
       839   1078.219   1867.173     5.483     0.620  -0.6
       840    352.388   2017.671     0.633     0.458 -66.7
       841   1260.124   1868.443     0.545     0.532 -26.9
       842   1498.837   2004.420     9.460     0.629  -6.1
       843    799.565   1897.885     2.705     0.893 -47.6
       844   1004.760   1972.558     3.497     0.559 -15.4
       845   1710.740   2031.053     1.432     0.651  40.3
       846   1791.110   1977.920     0.314     0.296 -12.3
       847    647.582   1857.232     3.838     0.944 -71.0
       848    949.601   2011.630     6.167     2.758  44.6
       849    718.091   2023.998    14.324     0.632 -13.2
       850   1145.904   2010.830     0.421     0.295 -89.0
       851    919.494   2008.914     0.507     0.474 -28.8
       852   1564.804   1904.080     1.143     1.041  27.2
       853     81.167   2009.977     0.639     0.620 -86.3
       854   1138.427   2039.906     0.838     0.291  -0.6
       855   1949.897   2037.629     0.958     0.936  40.0
       856   1136.145   2004.450     0.632     0.576 -69.9
       857   1755.622   2035.978     1.869     0.516 -45.9
       858    712.100   1882.236     3.938     0.877  16.9
       859    905.560   2001.882     1.414     0.635 -50.0
       860   1962.778   1873.477     0.835     0.825 -47.2
       861    804.515   1941.818     0.993     0.643 -59.0
       862   1505.275   1884.014     0.532     0.322  -1.2
       863   1253.058   1883.923     0.968     0.766  42.1
