#   1 NUMBER                 Running object number                                     
#   2 X_IMAGE                Object position along x                                    [pixel]
#   3 Y_IMAGE                Object position along y                                    [pixel]
#   4 A_IMAGE                Profile RMS along major axis                               [pixel]
#   5 B_IMAGE                Profile RMS along minor axis                               [pixel]
#   6 THETA_IMAGE            Position angle (CCW/x)                                     [deg]
         1   1526.351     24.893     5.861     0.519  88.6
         2   1577.452     12.772     1.315     0.861 -85.4
         3    473.514      6.797     4.755     0.751  20.7
         4   1314.042      6.477     0.528     0.486  88.7
         5     39.565      6.435     1.605     0.289 -45.0
         6   1867.101      1.000   172.890     0.289   0.0
         7    769.220     35.095     7.376     0.647  19.2
         8    270.879     11.361     0.502     0.446 -80.5
         9   1112.137     15.490     0.721     0.696  76.1
        10    786.861     25.411     0.727     0.662  52.3
        11   1865.724     19.968     0.493     0.346 -36.4
        12    395.020     18.764     0.473     0.437  86.0
        13   1526.378     44.134     3.252     0.646 -89.3
        14    802.028     44.431     2.889     1.735   0.3
        15    297.908     38.768     1.543     1.110 -60.8
        16    408.308     29.543     0.796     0.636 -87.2
        17      6.719     29.721     1.775     0.789 -36.8
        18     28.622     26.938     1.094     0.474 -27.8
        19    809.062     67.952     4.484     0.817  71.8
        20   1756.631     39.750     0.974     0.853 -58.0
        21   1920.060     31.969     0.608     0.575 -46.3
        22    774.280     59.237     5.574     0.929 -31.5
        23      7.539     37.040     0.807     0.309  58.3
        24   1826.200     63.949     4.549     1.089 -35.0
        25     72.296     42.404     0.564     0.536 -71.6
        26    844.770     98.899     9.659     2.016  28.0
        27   1857.822     49.351     8.203     0.533  -0.7
        28   1233.045     48.379     0.644     0.621  85.7
        29    713.834     59.426     0.856     0.641  74.4
        30    457.212     78.191     2.616     0.580 -57.4
        31   1929.515     64.156     4.447     0.551  -0.6
        32     28.844     89.440     1.902     1.862 -44.5
        33   1391.434    125.377     9.501     0.737  45.6
        34   1705.184     71.688     6.110     0.597   2.9
        35    725.165     78.388     2.712     0.788  21.5
        36    474.050     73.983     0.394     0.389  74.5
        37   1759.074     91.495     2.638     1.434  33.2
        38   1620.675     78.464     0.581     0.484  22.1
        39   1254.771     94.801     2.092     0.984  11.8
        40   1023.888     93.010     1.814     0.519  18.8
        41    152.187    100.603     2.377     0.765  -6.2
        42   1526.401    109.316     2.502     0.484 -88.3
        43   1841.256    134.623     5.319     0.600 -59.4
        44    591.567    114.061     6.580     0.635  13.2
        45    270.115    118.280     2.190     0.296 -86.8
        46   1240.313    108.488     2.288     0.333  13.9
        47   1701.201    110.825     0.641     0.632  43.3
        48   1785.954    113.068     0.633     0.488  73.5
        49   1357.234    165.332    14.387     1.294  20.8
        50    498.880    246.298    22.800     5.869  56.2
        51   1909.760    117.876     0.653     0.647   5.0
        52   1280.078    135.160     6.058     1.055   7.7
        53    590.629    163.610     4.539     0.717 -79.1
        54    503.869    170.887     7.261     0.728 -55.4
        55    529.081    132.143     1.090     0.855 -60.1
        56    862.482    130.221     0.852     0.827 -41.0
        57   1818.666    127.280     0.628     0.621  63.3
        58    204.991    157.485     5.349     1.019  43.3
        59   1451.795    138.805     7.086     0.539  -5.4
        60   1948.646    131.433     0.657     0.207 -46.2
        61    129.570    197.659     7.418     2.539 -81.4
        62    307.526    140.203     0.499     0.443   0.6
        63   1329.368    146.839     0.942     0.858 -82.3
        64   1991.129    156.736     1.516     0.716 -74.0
        65    154.001    148.476     0.846     0.779  39.8
        66     94.332    151.683     0.888     0.550   2.3
        67   1758.793    151.202     0.650     0.608 -69.7
        68    270.140    208.765     3.182     0.340 -88.8
        69    856.308    169.405     3.939     1.122  20.2
        70   1515.674    153.975     0.614     0.421  62.5
        71     96.107    164.336     1.172     0.923 -67.7
        72   1065.982    166.427     0.613     0.582 -18.2
        73    583.017    172.603     1.492     0.678 -37.4
        74    948.479    173.690     0.754     0.714  50.9
        75    371.409    169.080     0.690     0.643  83.8
        76    463.556    198.186     1.765     0.668  85.9
        77   1539.976    189.660     1.191     0.546 -29.9
        78   1032.844    212.935    10.987     0.517  18.3
        79   1755.286    205.527     0.597     0.545 -86.4
        80    950.927    213.411     1.056     0.792  -2.0
        81   1624.902    205.970     0.627     0.533  57.4
        82   1590.472    228.210     3.589     1.063  39.0
        83   1720.099    226.017     1.139     0.386 -75.8
        84     58.096    224.393     0.729     0.532 -65.6
        85    888.802    225.094     0.630     0.621 -70.6
        86   1732.430    228.770     0.778     0.713   0.0
        87   1163.013    766.469    62.624     0.127  90.0
        88    942.376    243.351     3.894     0.835 -31.8
        89   1162.789    233.232     0.897     0.818  14.2
        90   1697.038    231.032     0.355     0.312 -67.1
        91    455.570    244.565     1.937     1.124 -59.1
        92    778.422    236.942     0.761     0.749  87.7
        93   1944.651    275.317    13.066     4.720   2.7
        94    178.684    239.932     0.711     0.654  44.3
        95    438.753    246.741     1.557     0.843  33.2
        96   1445.135    239.344     0.475     0.342  88.6
        97    981.054    253.390     1.288     0.499 -69.8
        98   1081.067    261.118     1.368     0.773  89.1
        99    714.535    258.902     1.404     0.522  63.8
       100    487.805    255.554     0.601     0.552  77.3
       101   1019.583    273.290     3.615     1.019  32.6
       102   1308.551    255.848     0.525     0.504 -46.3
       103    151.074    305.776     8.519     1.024  46.8
       104   2004.429    266.722     1.272     0.822 -30.6
       105   2012.008    266.329     0.883     0.834  -8.3
       106   1909.988    259.513     0.564     0.498  10.4
       107    419.896    340.983     9.235     0.660 -81.8
       108   1924.900    264.600     1.082     0.219  24.4
       109    285.402    284.423     2.729     0.584  40.8
       110    475.755    273.953     0.456     0.435  41.1
       111   1574.783    286.664     3.692     0.733  29.3
       112   1056.650    276.879     0.544     0.517 -80.4
       113    434.534    300.021     3.650     0.602 -36.3
       114   1429.038    328.297     9.000     1.779  25.7
       115   2015.608    294.240     0.723     0.692  43.5
       116    857.666    294.157     0.698     0.675 -60.4
       117   1895.871    298.978     1.382     0.284 -39.6
       118    374.429    294.054     0.639     0.599 -63.3
       119   1544.234    295.902     0.633     0.620 -21.6
       120   1245.897    299.057     0.486     0.303  87.7
       121     32.685    305.381     0.573     0.482 -51.0
       122    909.550    310.315     0.573     0.571  -0.5
       123    300.712    315.633     0.567     0.550 -64.4
       124   2011.227    336.936     3.381     0.491  58.5
       125    124.587    336.787     2.390     0.435 -84.4
       126    455.557    426.286    11.475     2.662  82.0
       127    364.981    322.569     0.783     0.385  48.0
       128    940.270    330.821     0.632     0.599  78.4
       129   1361.631    330.956     0.550     0.528  68.9
       130    380.189    351.360     4.065     0.743 -13.6
       131     24.352    349.599     2.662     1.130 -17.2
       132     57.783    378.012     8.877     0.481  28.9
       133    648.748    342.278     0.449     0.433  74.8
       134    651.334    346.074     0.617     0.600 -17.9
       135   1054.127    361.109     1.671     0.819 -75.2
       136      7.675    516.364    16.029     0.918  90.0
       137    106.363    358.437     2.682     0.508  -6.6
       138   1154.429    354.968     0.540     0.488  69.7
       139   1094.255    371.412     1.044     0.773  -5.6
       140   1673.009    365.336     0.488     0.295 -85.3
       141   1021.027    377.839     1.545     1.104  -7.1
       142   1177.416    372.313     0.776     0.704 -37.8
       143    145.608    374.791     2.368     0.537  -0.3
       144    252.123    386.303     1.281     0.849  28.7
       145   1336.284    399.009     3.790     0.497 -52.4
       146    598.206    390.555     2.941     0.745  37.5
       147   1099.407    383.340     0.584     0.527 -74.5
       148    617.828    378.204     0.538     0.391  15.5
       149    712.193    389.980     0.673     0.582  58.2
       150   1387.446    390.113     3.839     0.593   6.4
       151    426.918    394.572     0.754     0.728  39.8
       152    942.106    396.031     0.627     0.590 -62.1
       153    387.581    410.628     3.027     1.903 -11.3
       154    957.315    396.572     0.626     0.533  52.7
       155    870.157    543.374    10.399     1.082 -52.7
       156    585.371    422.054     7.187     0.550 -24.4
       157   1870.907    436.153     5.351     1.249  67.6
       158   1543.159    399.878     0.365     0.328   3.2
       159    978.537    511.210    17.501     2.038 -44.1
       160   1893.319    405.951     0.588     0.312   3.1
       161   1022.148    425.942     2.956     0.609 -46.1
       162     52.014    414.028     0.759     0.719 -52.5
       163    414.914    422.324     4.843     1.139  -4.4
       164    999.864    411.504     0.500     0.422 -89.6
       165    831.088    426.111     0.753     0.381  67.2
       166    690.794    473.053     8.366     1.660  45.1
       167    740.748    430.893     0.746     0.649  65.1
       168    794.823    427.064     0.581     0.381  86.6
       169    511.694    429.985     0.506     0.441 -16.2
       170    129.877    441.606     1.332     0.710  46.7
       171    218.682    436.762     0.554     0.538 -73.4
       172   1601.675    470.732     3.646     0.819 -89.5
       173    831.455    449.573     0.786     0.772  42.3
       174   1535.267    448.387     0.811     0.669  74.4
       175    889.400    461.013     1.220     0.946  88.8
       176   1753.291    468.121     3.476     0.879 -44.6
       177    622.529    459.293     0.500     0.460   8.9
       178    522.715    458.981     0.578     0.514  67.5
       179   1902.334    468.619     1.384     0.737  57.4
       180   1217.828    465.014     0.461     0.452  -2.4
       181   1849.410    479.985     2.530     0.884 -18.0
       182    935.640    469.872     0.506     0.473  12.6
       183    562.793    478.614     1.662     0.375 -62.5
       184   1900.407    481.101     1.636     0.563 -37.8
       185   1685.739    478.301     0.771     0.760  70.7
       186   1020.728    550.787     9.396     2.562  62.7
       187   1372.076    485.724     0.667     0.642  60.9
       188   1692.714    519.537     4.839     0.506 -48.4
       189   1548.328    489.435     0.626     0.612 -21.6
       190   1412.300    543.228    15.508     1.294  28.3
       191    695.642    491.843     0.515     0.511  34.5
       192   1982.124    510.815     3.246     0.489  21.7
       193   1449.535    503.268     0.602     0.567 -13.9
       194   1403.017    503.083     0.577     0.533 -47.5
       195   1281.929    503.052     0.342     0.329  74.5
       196    521.249    506.809     0.506     0.476 -87.5
       197   1707.994    512.097     0.850     0.746 -44.1
       198    115.814    511.675     0.845     0.800  53.9
       199   1333.905    509.515     0.605     0.598  88.4
       200   1626.347    522.476     1.777     0.725  50.6
       201    653.377    513.558     1.660     0.280 -49.3
       202    650.663    519.126     1.199     0.198 -68.7
       203   1926.389    557.074     6.135     0.657  49.5
       204   1393.904    526.846     0.885     0.853  -0.4
       205     97.346    525.679     0.616     0.596 -52.5
       206   1476.846    545.968     1.438     1.156  53.3
       207   1226.480    532.334     0.624     0.542  82.5
       208    532.007    536.595     0.664     0.634  70.7
       209   1161.312    538.283     0.680     0.515  46.1
       210     70.104    536.611     0.495     0.292  77.7
       211   1556.427    548.356     0.706     0.662 -35.2
       212   1079.450    552.610     0.877     0.802 -41.7
       213   1719.533    602.273    10.525     2.239 -41.0
       214   1093.349    551.357     0.688     0.316 -37.1
       215    240.496    558.500     0.801     0.785 -46.2
       216    534.494    554.006     0.613     0.603 -48.6
       217    245.869    554.232     0.448     0.398  80.8
       218    196.602    573.365     2.200     0.876  39.5
       219    920.475    571.814     2.400     0.657 -18.1
       220   1207.112    570.318     0.662     0.648   3.9
       221   1864.106    579.424     1.171     0.824   1.9
       222    164.010    578.828     0.786     0.708  56.9
       223   2032.540    597.383     2.798     0.678  65.2
       224     80.543    583.321     1.003     0.875  56.1
       225   1178.376    580.299     0.729     0.713 -53.8
       226   1042.132    576.152     1.389     0.099  44.8
       227    712.330    581.670     0.823     0.811   8.0
       228    948.396    588.471     1.821     0.696  36.6
       229   1175.007    587.482     0.691     0.505 -44.7
       230    731.020    585.432     0.510     0.465  78.9
       231    849.056    594.210     3.389     1.098  -4.2
       232    194.797    591.669     0.545     0.499 -19.1
       233   1662.619    594.762     0.512     0.480 -30.7
       234    388.152    596.012     1.502     0.675  15.9
       235    370.539    595.573     0.784     0.699  36.3
       236    107.400    607.463     0.784     0.720 -61.1
       237   1178.440    609.896     0.677     0.605  81.0
       238   1262.582    616.128     7.784     0.542   3.1
       239   1551.524    610.043     0.639     0.526  78.7
       240   1774.564    610.273     0.619     0.558 -19.3
       241     88.965    613.330     0.470     0.287 -88.8
       242    502.599    616.584     0.519     0.495  50.1
       243   1547.523    632.812     4.658     0.907  -4.6
       244   1442.416    631.473     4.538     0.462  23.0
       245    707.728    628.467     2.371     0.917  15.6
       246   1835.298    648.632     3.416     1.049  81.2
       247    125.079    643.012     1.613     0.553 -63.8
       248   1058.101    635.284     0.603     0.559 -81.7
       249    771.319    641.541     0.914     0.831 -51.2
       250   1504.387    657.059     8.466     0.594  16.8
       251     18.430    644.989     0.866     0.505 -17.9
       252     84.844    651.234     0.914     0.824 -58.8
       253   1192.651    647.264     0.667     0.651 -69.6
       254      2.345    644.944     0.497     0.464   1.2
       255   1333.060    670.467     5.172     1.265  26.9
       256   1238.429    672.006     6.203     1.092  23.9
       257   1827.302    649.117     0.606     0.582  57.0
       258   1823.391    657.693     1.132     0.651  -1.2
       259   1353.275    655.100     0.583     0.291  17.0
       260    794.998    655.091     0.652     0.599  72.5
       261   1542.561    667.183     0.998     0.795  77.9
       262   1196.291    677.151    10.164     0.523 -12.4
       263   1970.902    666.620     1.181     0.483 -69.4
       264   1096.678    665.071     0.770     0.560 -57.8
       265    558.102    663.883     0.321     0.303  88.9
       266     99.411    676.496     6.697     0.544  -7.0
       267   1014.777    675.796     0.869     0.669  34.0
       268    336.545    684.802     1.687     0.762 -86.3
       269    114.532    670.989     0.725     0.307   0.7
       270    140.983    681.086     0.981     0.519 -76.5
       271   1495.305    685.651     4.268     0.790  -9.9
       272    894.522    686.059     1.184     0.783  13.5
       273   1638.351    691.599     0.878     0.791  62.4
       274   1153.942    681.452     0.498     0.234  89.6
       275    443.959    687.668     0.476     0.210 -88.5
       276   1352.681    689.093     0.475     0.344 -16.3
       277     11.169    745.801     9.196     0.398  45.6
       278   1215.698    696.069     0.680     0.648  78.6
       279    531.485    692.193     0.592     0.578  73.0
       280   1256.101    709.507     1.859     0.649 -87.0
       281   1917.637    698.928     1.033     0.552  51.9
       282   1416.854    694.174     0.398     0.380 -80.3
       283    729.010    702.245     3.961     0.507  16.7
       284   1228.617    706.917     4.325     0.645  -6.9
       285   1075.128    700.171     0.414     0.395 -45.0
       286    894.597    699.831     0.822     0.465  26.4
       287    205.039    752.297     7.581     0.652 -55.7
       288   1695.520    702.134     0.551     0.455  48.2
       289   1890.334    705.165     0.472     0.371   0.2
       290   1772.629    708.500     0.500     0.483 -90.0
       291   1795.815    729.507     2.193     0.967   8.8
       292   1591.402    729.393     0.887     0.738  82.6
       293    823.845    721.820     0.599     0.568  73.3
       294    210.396    737.053     1.195     0.800 -80.2
       295   1541.590    736.079     1.287     0.652 -30.8
       296    505.200    738.117     0.975     0.889 -50.2
       297    319.890    731.789     0.758     0.587  22.6
       298   1333.437    735.480     0.604     0.599 -52.5
       299   1095.373    742.771     5.230     0.533   0.7
       300    786.750    741.922     1.067     0.864 -32.4
       301    280.346    741.170     0.645     0.624  44.8
       302     41.278    739.000     0.533     0.297   0.0
       303    805.153    783.195     9.205     0.871 -31.1
       304   1184.718    745.285     0.730     0.667 -62.0
       305   1329.138    744.528     0.629     0.532  14.6
       306    917.957    760.232     3.650     0.971  14.8
       307   1110.919    762.782     2.660     0.567  42.0
       308   1042.448    761.613     2.695     1.113 -25.2
       309     50.745    753.587     1.833     0.492  60.0
       310   1201.322    747.554     0.506     0.458  63.9
       311   1028.757    772.989     2.789     0.904  30.9
       312    870.882    761.346     1.344     0.747   4.2
       313    948.032    760.781     0.484     0.415  73.9
       314    498.911    761.694     0.472     0.437 -73.6
       315    952.812    769.764     1.110     0.645 -76.4
       316    469.343    763.018     0.479     0.236   0.3
       317     37.034    776.327     1.028     0.849  22.5
       318   1222.759    780.823     0.661     0.612  77.4
       319   1535.944    782.820     0.723     0.681  -0.1
       320     88.727    781.009     1.085     0.262  -3.0
       321   1729.894    860.456     8.742     6.644  79.7
       322    923.699    800.973     1.578     0.598 -74.7
       323    834.041    784.846     0.578     0.569   8.7
       324   1784.489    821.368     8.359     0.517 -30.3
       325    355.106    786.621     0.493     0.389 -77.4
       326      8.382    902.519    12.934     3.708  80.0
       327   1650.173    794.821     0.651     0.597 -70.5
       328   1383.005    800.114     6.560     0.506  10.5
       329   1870.944    797.219     0.704     0.703  85.8
       330    968.939    813.168     8.223     2.124   7.1
       331   1093.200    894.236    12.211     0.520  71.8
       332    163.372    836.652     8.680     1.892  29.2
       333    121.522    799.291     0.913     0.663  86.9
       334    546.930    806.140     2.072     0.828   2.0
       335    497.277    799.240     0.473     0.459  62.9
       336   1035.110    799.178     0.383     0.313 -85.7
       337   1723.145    805.840     0.614     0.581 -55.6
       338   1431.551    812.073     0.721     0.706 -53.5
       339   1970.661    839.306    17.093     0.534 -12.4
       340   1908.061    813.518     0.617     0.487 -55.5
       341    582.235    820.539     5.263     0.410   7.1
       342    437.974    838.871     2.824     0.896 -85.2
       343    197.386    814.785     0.488     0.409  -8.3
       344    869.045    823.382     0.738     0.714  77.8
       345    119.653    831.979     0.613     0.422  60.3
       346    309.383    836.949     0.647     0.513  23.6
       347   1266.727    841.358     0.753     0.604 -83.6
       348   1931.448    842.878     0.674     0.629 -55.8
       349    379.319    962.607    26.228     3.990  35.1
       350    613.028    882.355    20.372     0.605 -12.4
       351    348.452    841.123     0.498     0.392  -2.2
       352    914.146    845.829     2.164     0.520  19.7
       353   2016.583    841.745     0.533     0.468  52.5
       354   1093.433    848.638     0.689     0.665 -18.1
       355    105.274    884.276     8.092     0.651 -33.6
       356    137.422    865.832     2.848     0.704 -66.5
       357    545.574    846.202     0.508     0.403  13.4
       358    219.863    846.339     0.522     0.512  52.0
       359   1219.393    859.930     4.426     1.312   7.8
       360    892.832    850.162     0.563     0.509  27.1
       361     79.046    853.059     0.733     0.483  -2.0
       362   1248.186    851.744     0.436     0.389  88.4
       363   1702.727    898.804    15.411     1.995 -10.8
       364   1010.658    871.868     2.138     1.059 -12.7
       365   1168.512    873.028     0.759     0.753   4.4
       366    908.191    885.900     2.145     0.870 -67.9
       367    125.266    878.251     0.738     0.684 -88.3
       368   2025.667    886.129     0.608     0.599 -81.2
       369    442.189    888.676     0.660     0.631 -62.6
       370    618.872    937.079     7.924     1.306  47.1
       371    616.159    900.295     1.366     0.991  89.0
       372   1190.421    901.845    13.162     0.484   0.6
       373    307.373    899.288     0.730     0.597 -70.5
       374   1861.938    902.599     0.657     0.643  88.5
       375    552.261    972.255     8.557     1.694 -89.2
       376    735.089    955.014     8.387     1.460 -56.9
       377   1164.154    925.153     3.348     1.699 -63.8
       378   1087.538    903.864     0.703     0.489 -77.9
       379    733.366    903.867     0.586     0.574 -68.4
       380   2007.452    989.135    15.265     3.255 -50.2
       381   1125.969    904.249     0.432     0.286  88.5
       382   2027.802    943.689     5.204     2.764  32.3
       383   1392.346    978.228    14.354     3.215 -32.3
       384     12.867   1027.489    13.362     0.653  84.8
       385     79.535    926.847     4.041     0.542 -25.8
       386    426.857    920.138     0.983     0.610  17.0
       387    530.155    920.879     0.745     0.744  10.1
       388   1175.223    929.102     0.744     0.594  72.0
       389   1604.379    922.350     0.658     0.652 -64.2
       390   1828.875    945.176     4.077     1.144  51.2
       391    632.486    923.943     0.503     0.456  16.5
       392    439.248    944.501     2.872     0.499 -84.3
       393   1497.047    932.565     0.609     0.592 -41.7
       394   1208.000    929.996     0.596     0.289  90.0
       395   1652.288    946.063     1.722     0.864 -51.6
       396    309.260    957.943     6.136     0.515 -27.2
       397   1134.460    960.402     3.464     0.796 -73.1
       398    348.905    943.723     0.696     0.673  88.4
       399    594.767    939.428     0.495     0.423  86.2
       400   1029.764    945.342     0.508     0.440 -82.2
       401    829.575    947.543     0.627     0.490  80.8
       402   1405.307    953.084     0.686     0.507 -40.6
       403    241.717    957.937     1.189     0.904  23.9
       404    375.359    952.142     0.609     0.591  60.7
       405   1727.993    955.430     0.495     0.279  89.7
       406   1329.282    958.816     0.546     0.535  29.8
       407   1429.515    963.916     1.775     0.847  -0.1
       408   1793.211    967.245     0.907     0.794   7.1
       409   1735.997    963.937     0.417     0.294 -89.9
       410    627.045   1089.796    15.702     5.639 -64.4
       411   1979.868    972.932     0.572     0.452 -55.3
       412   1478.939    973.460     0.508     0.302  88.9
       413     20.676    978.444     0.629     0.554  65.8
       414   1361.307    978.860     0.667     0.626 -62.4
       415   1249.384    973.407     0.494     0.483 -58.2
       416    543.928    979.545     0.835     0.453  33.5
       417   1626.097    976.241     0.595     0.424  -7.8
       418   1502.027    987.427     0.815     0.665 -51.1
       419   1041.300   1029.281     5.449     0.778 -80.4
       420   1615.332   1031.905     5.870     0.600  80.3
       421     28.092   1000.194     1.827     0.920  73.6
       422    704.903   1000.910     0.850     0.835  13.4
       423    173.679    997.193     0.573     0.426  60.2
       424    214.870   1002.089     3.581     0.513   0.4
       425   1622.250   1002.231     0.449     0.415 -44.3
       426   1884.737   1007.090     1.214     0.745   6.7
       427    414.407   1011.139     0.764     0.747  83.2
       428   1972.660   1005.832     0.474     0.374   2.8
       429    645.771   1025.344     2.575     0.495 -74.4
       430    554.382   1031.876    11.797     0.524  13.4
       431     66.838   1034.018     3.033     0.604 -61.6
       432   1577.923   1019.641     0.661     0.647  84.4
       433    471.070   1025.150     0.594     0.569 -57.9
       434    451.110   1049.797     3.432     0.769  38.8
       435    582.462   1032.407     0.834     0.752 -83.5
       436   1608.002   1030.531     0.758     0.697  51.6
       437    261.424   1034.322     0.743     0.725 -76.5
       438    965.046   1037.633     1.308     0.639  11.3
       439   1038.584   1048.508     2.447     0.583  40.6
       440    286.003   1105.909     7.667     1.096  68.7
       441   1797.091   1074.388    10.676     2.829 -19.3
       442   1505.917   1045.916     0.949     0.674  26.7
       443   1413.431   1073.552     6.405     0.487  33.1
       444    287.719   1052.689     0.504     0.460  89.5
       445    312.422   1066.694     1.510     0.912  73.4
       446   1191.174   1074.998     2.251     1.314  50.0
       447   1598.510   1059.746     0.627     0.473  10.9
       448    206.586   1090.151     4.818     1.486 -41.9
       449   1562.039   1060.164     0.371     0.246 -85.2
       450   2003.408   1121.849     8.069     1.007  31.1
       451    933.511   1091.133     1.113     0.595  80.7
       452   1598.341   1084.804     0.503     0.360  28.5
       453   1642.424   1125.326     6.751     4.298   9.3
       454   1272.042   1290.810    31.624     5.241 -49.8
       455    890.669   1113.048     2.883     1.193 -30.7
       456   1647.948   1096.900     0.433     0.362 -82.5
       457   1883.611   1103.798     0.931     0.806  39.2
       458    213.090   1098.509     0.664     0.572 -37.2
       459   1859.255   1108.084    10.888     0.660  -1.6
       460   1952.204   1103.346     1.217     0.293 -18.5
       461   2038.716   1107.823     0.451     0.382  -1.2
       462    224.840   1110.756     0.505     0.426  78.0
       463   1621.085   1115.133     0.479     0.246  71.2
       464   1187.910   1113.014     0.675     0.647  -1.7
       465    918.418   1121.563     0.944     0.478 -58.0
       466    845.332   1125.061     1.092     0.847 -25.1
       467   1465.434   1132.706     2.021     0.992  -4.3
       468   1346.837   1139.491     2.098     1.813  32.4
       469      3.306   1148.730     2.285     0.691  57.1
       470   1506.267   1150.474     2.318     0.630  47.8
       471     60.824   1149.024     4.266     0.592 -25.9
       472   1643.371   1134.924     0.483     0.335   0.3
       473    240.965   1135.804     0.525     0.487 -17.5
       474   1806.192   1152.065     1.929     0.653  76.6
       475   1905.762   1147.729     0.646     0.610  60.2
       476   1101.126   1149.436     0.754     0.723 -82.5
       477   1018.651   1152.217     0.962     0.744  78.6
       478    553.669   1159.070     3.725     1.187  10.1
       479   2009.189   1155.420     0.873     0.838  37.8
       480   1863.026   1149.192     0.405     0.296  89.8
       481   1055.238   1151.875     0.646     0.597 -37.5
       482     89.523   1171.296     3.989     0.534  19.3
       483    232.412   1157.428     0.639     0.280 -45.2
       484   1143.107   1178.230     1.043     0.926 -60.4
       485    354.587   1182.881     2.029     0.877 -45.3
       486   1202.145   1175.450     1.320     0.487  16.2
       487    141.211   1178.545     1.040     0.800 -78.6
       488   1125.964   1172.147     0.387     0.337 -86.3
       489    871.017   1169.753     0.431     0.296 -89.9
       490   1757.871   1171.802     0.497     0.481  10.2
       491    491.345   1174.645     0.486     0.468  50.2
       492   1698.709   1180.671     0.591     0.570 -55.3
       493    655.728   1185.280     0.704     0.690 -42.7
       494    957.261   2007.562     4.249     0.763 -10.1
       495   1511.007   1025.964   666.383   127.557  88.4
       496    194.016   1992.507     9.193     0.956  90.0
       497    209.751   1825.764     4.405     1.672 -40.9
       498   1183.433   1949.195     5.618     1.091  61.3
       499   1011.562   1793.692    16.409     0.505 -22.6
       500    330.418   1960.579     1.088     0.726  74.4
       501   1417.286   1828.292     0.752     0.687 -32.3
       502    712.278   1965.797     6.391     1.037  12.2
       503    666.675   1940.016     2.273     0.525  43.3
       504    888.843   1970.042     0.796     0.776  78.8
       505    341.930   1789.663     4.163     1.131 -74.8
       506    191.841   1780.302     0.548     0.318 -66.1
       507    507.913   1809.136     0.546     0.544  61.8
       508    682.417   1813.078     0.493     0.343  -0.6
       509    389.108   1936.556    12.310     1.765  83.9
       510   1025.942   1773.283     7.868     0.507  36.4
       511    825.026   1782.481     1.763     0.721 -26.4
       512   1762.578   1274.436     0.669     0.646 -83.8
       513    243.033   1787.492     3.068     1.507  -1.1
       514    157.269   1797.316     0.538     0.519 -67.2
       515     79.229   1788.937     3.830     0.991   0.6
       516   1940.384   1784.418     8.362     1.012  11.1
       517   1374.844   1792.081     0.400     0.360   7.9
       518   2010.186   1767.607     9.831     0.514 -44.5
       519    334.447   1760.788     7.020     0.947 -34.3
       520     59.862   1769.868     5.155     0.599 -32.3
       521   1509.798   1759.564     0.756     0.276  65.6
       522    728.969   1423.167     0.472     0.336  89.7
       523    597.222   1754.448     0.659     0.634 -54.9
       524    869.534   1756.968     1.025     0.820 -72.7
       525    307.500   1769.588     2.527     0.715   5.5
       526    507.894   1764.650     0.802     0.719 -53.5
       527    810.936   1769.536     0.533     0.419  87.5
       528    950.237   1748.243    19.131     0.533  47.7
       529    346.455   1699.241     5.416     0.670 -23.7
       530    650.803   1759.713     0.851     0.785 -26.7
       531    688.902   1911.210     2.173     0.848  -9.8
       532   1483.959   1953.662     0.735     0.722 -61.1
       533    631.403   1972.653     0.590     0.561  43.0
       534    704.686   1360.109     0.586     0.580  52.3
       535    634.889   1327.411     5.169     0.930 -89.8
       536    426.949   1749.797     1.917     0.925 -11.1
       537   1762.843   1724.062     1.035     0.482 -15.4
       538    102.545   1723.610     2.221     1.203  41.0
       539    759.655   1734.809     1.405     0.665  -0.8
       540   1053.620   1319.086     2.560     0.717  17.3
       541   2022.494   1742.010     1.012     0.760 -71.5
       542    941.078   1357.270     7.370     0.617 -12.5
       543   1445.147   1728.902     0.623     0.504  -0.8
       544   1567.549   1728.316     0.658     0.618 -22.0
       545   1991.831   1726.461     0.796     0.703 -64.6
       546    104.883   1685.564     1.321     0.999  60.7
       547    357.940   1715.103     0.378     0.300  55.8
       548    777.269   1424.163     0.549     0.533  38.4
       549   1107.801   1714.461     4.535     2.746 -55.4
       550    710.569   1706.136     1.210     0.701  30.1
       551    505.849   1419.605     1.179     0.903 -84.0
       552    584.209   1424.447     0.577     0.563  60.7
       553    573.094   1708.997     2.429     0.874  80.6
       554    733.975   1423.856     0.472     0.462  11.9
       555    729.943   1696.474     4.094     0.466   6.6
       556   1414.219   1418.532     4.345     1.307  12.9
       557   1728.272   1691.825     3.699     1.243  13.0
       558    933.630   1687.006     4.016     0.399  55.8
       559   1586.264   1698.072     0.651     0.626 -19.4
       560    827.326   1675.209    27.344     0.512  16.7
       561   1821.573   1698.233     0.496     0.469 -15.4
       562   1694.500   1692.878     0.665     0.498 -84.6
       563    868.590   1428.430     7.736     2.073 -29.3
       564   1255.523   1689.355     3.622     0.553 -24.6
       565   1484.436   1426.497     0.602     0.578 -57.0
       566    960.517   1606.668     0.614     0.564 -10.4
       567   1474.127   1678.993     0.573     0.564 -64.6
       568    984.026   1437.568     0.827     0.739 -46.0
       569   1471.948   1659.599     1.665     0.394  11.5
       570    462.020   1634.976     1.506     0.504  10.3
       571   1689.284   1428.230     4.309     0.490 -17.6
       572   1501.083   1604.684     5.386     0.674  -2.3
       573   1540.903   1605.188     2.899     1.527  50.6
       574    868.005   1440.377     0.845     0.474  -8.8
       575   1863.041   1678.251     0.540     0.323  73.4
       576   1139.273   1628.342     5.084     0.953  59.5
       577     27.468   1663.764     0.732     0.556  56.0
       578   2000.930   1638.421     0.495     0.465  77.6
       579    430.515   1662.543     0.624     0.523  -7.5
       580    918.155   1608.645     0.723     0.707  -0.7
       581   1425.405   1651.997     1.964     0.336  31.5
       582   1996.081   1634.877     0.329     0.271  82.3
       583    735.310   1638.670     0.942     0.781  45.0
       584   1049.030   1635.173     1.908     1.111 -86.4
       585    122.825   1653.338     0.475     0.378  82.0
       586    653.634   1634.212     3.448     0.566 -74.5
       587     81.524   1642.315     1.505     0.706  47.2
       588    135.407   1644.234     0.657     0.617  45.2
       589     77.439   1618.073     0.758     0.325 -56.8
       590   1652.404   1622.730     0.510     0.486  21.1
       591    374.749   1610.024     0.510     0.481 -33.4
       592    164.699   1617.954     0.668     0.595  54.9
       593     25.217   1625.391     2.672     0.736 -41.8
       594   1938.170   1623.893     2.612     0.725 -72.4
       595    478.180   1562.795     0.507     0.428 -64.9
       596    792.875   1618.319     3.804     0.847   0.4
       597    422.199   1608.230     0.995     0.845 -83.2
       598   1709.804   1620.191     0.650     0.642  10.3
       599   1986.569   1608.084     0.769     0.724 -66.4
       600   1123.016   1579.717     4.113     0.507 -63.6
       601   1457.266   1600.059     0.694     0.657  69.8
       602   2020.449   1599.141     0.625     0.602 -84.4
       603    221.509   1597.587     0.607     0.591  66.6
       604    589.762   1604.214     0.431     0.405  25.9
       605   1838.329   1600.147     0.797     0.790 -72.5
       606     94.529   1591.481     0.857     0.732 -60.6
       607   1466.612   1592.076     0.507     0.503 -68.1
       608    585.795   1588.865     0.718     0.666 -83.5
       609    250.566   1566.392     6.263     1.208  -7.1
       610    185.701   1535.467     0.522     0.499 -58.5
       611   1277.336   1536.226     0.541     0.525 -42.5
       612   1414.784   1580.794     0.695     0.692  40.0
       613   1748.138   1583.957     0.677     0.666  81.5
       614    581.979   1530.615     3.606     0.902  37.0
       615    281.550   1564.417     7.938     0.667  50.1
       616   1562.005   1573.983     2.530     0.522  41.4
       617   1916.428   1578.043     1.194     0.728 -15.8
       618    623.848   1525.234     0.755     0.750 -27.7
       619   1581.138   1454.096     0.604     0.595  58.9
       620   1433.912   1552.095     0.381     0.367 -62.6
       621   1831.229   1397.964     0.996     0.690  39.3
       622    236.442   1558.429     1.881     0.436 -65.6
       623    889.443   1547.664     2.032     0.870  45.8
       624    797.222   1544.641     4.526     0.638 -86.0
       625   1870.305   1562.187     0.555     0.539 -89.2
       626   1666.956   1363.715     0.463     0.306 -86.8
       627     97.968   1557.639     0.553     0.537  31.2
       628   1708.386   1537.333     0.678     0.650 -32.3
       629   1251.012   1537.790     2.791     0.512 -56.8
       630   1479.140   1540.827     1.638     0.538 -61.9
       631    233.392   1549.485     0.523     0.512  19.4
       632   1333.557   1536.676     1.187     0.497 -89.5
       633    945.009   1400.401     8.869     1.805 -70.0
       634     66.372   1522.271     0.616     0.544   6.7
       635   1402.640   1495.932     0.592     0.574 -78.5
       636    398.989   1449.593     1.748     0.405 -76.0
       637   1037.036   1451.720     1.088     0.744 -53.4
       638    356.197   1524.116     2.044     0.931  66.9
       639    560.385   1450.891     1.009     0.838  28.3
       640    420.736   1495.090    33.083     0.598  13.1
       641    646.279   1492.302     2.458     0.894  18.2
       642   1080.416   1489.415     0.863     0.779  62.0
       643   1485.091   1450.151     1.824     0.739 -47.9
       644   1161.570   1474.415    10.492     2.171  84.6
       645   1810.956   1501.193     0.498     0.457  12.7
       646   1389.061   1508.508     4.226     0.899  63.4
       647   1552.693   1502.857     0.788     0.713  75.4
       648    947.088   1499.625     0.618     0.475  34.0
       649    256.081   1500.452     0.674     0.644  54.9
       650   1928.544   1484.196     8.294     0.515  46.2
       651    979.532   1434.039     0.733     0.718  68.9
       652    581.791   1491.345     2.857     0.977  48.3
       653    803.571   1481.448     2.236     0.610  19.4
       654    767.679   1472.056     0.467     0.230   0.2
       655   1633.561   1455.454     3.164     1.486  62.8
       656    985.984   1483.151     0.593     0.358   0.6
       657    786.366   1444.169     0.698     0.668  53.3
       658   1610.298   1460.302     1.161     0.472  15.4
       659   2024.846   1464.815     4.604     1.914 -13.9
       660   1488.908   1468.275     0.676     0.632  70.1
       661   1467.267   1476.177     0.623     0.600 -86.3
       662    894.194   1462.381     1.059     0.720  22.4
       663    779.268   1468.794     0.804     0.785 -63.3
       664    621.149   1468.624     0.754     0.678  86.2
       665      1.270   1803.898     1.304     0.471 -89.0
       666   1218.756   1456.211     7.209     0.522  -3.1
       667    815.703   1455.053     2.142     0.586 -78.5
       668   1887.853   1442.104     0.356     0.326  16.3
       669   1248.373   1394.919     0.494     0.253 -13.7
       670   1504.665   1434.866     7.936     2.885 -83.6
       671    867.460   1434.857     4.180     0.491 -13.1
       672    396.927   1441.862     1.031     0.506  -4.6
       673   1953.046   1418.135     0.680     0.658  44.3
       674    883.855   1389.903     6.090     0.280 -88.0
       675    728.730   1433.438     3.651     0.577  28.2
       676   1445.985   1438.564     0.502     0.178 -89.6
       677   1629.967   1421.959     2.204     0.341 -56.3
       678     71.642   1358.198     3.204     1.481  54.9
       679    913.622   1405.757     0.798     0.440 -29.4
       680   1800.791   1423.708     0.754     0.733 -62.4
       681    299.516   1365.304     5.604     0.585 -17.7
       682     18.188   1386.968     0.693     0.669 -18.0
       683   1063.159   1368.045     0.462     0.448  85.5
       684   1820.838   1395.905    11.524     0.517 -26.7
       685   1678.931   1399.352     2.414     0.795 -80.0
       686   2033.505   1400.951     0.765     0.742  51.8
       687   1625.529   1388.386     1.001     0.774  28.3
       688    429.037   1394.028     0.514     0.305  65.7
       689    157.311   1396.488     0.500     0.463  84.1
       690    310.821   1383.086     0.668     0.646  77.3
       691    172.023   1382.143     1.286     0.594 -57.6
       692   1637.625   1343.916     0.484     0.278   1.5
       693    405.346   1377.846     1.558     0.896  25.9
       694    890.755   1358.462     7.618     1.297 -82.0
       695    897.297   1378.538     0.802     0.733 -75.6
       696   1739.580   1375.269     0.733     0.715  61.2
       697   1715.351   1369.137     0.790     0.763 -63.4
       698   1109.395   1376.090     0.988     0.365 -40.3
       699    685.353   1336.211     0.946     0.593 -83.4
       700    624.544   1358.669     3.857     1.424  45.5
       701    158.497   1277.641     1.044     0.773  11.3
       702   1803.030   1362.066     0.658     0.626 -88.8
       703    267.246    209.338   235.699     3.812 -89.7
       704   1077.215   1349.019     0.666     0.628 -72.1
       705    861.898   1338.127    16.499     0.527   4.4
       706   1901.155   1322.556     0.707     0.678  72.2
       707   1646.536   1340.119     0.742     0.592 -68.8
       708    718.111   1317.837     3.841     0.644 -49.3
       709   1448.192   1299.920     0.778     0.715  71.4
       710   1855.950   1338.113     0.440     0.373  84.0
       711    969.221   1340.490     0.519     0.441 -73.9
       712    960.322   1317.339    17.667     0.585 -34.9
       713    306.569   1322.029     2.936     1.554 -14.8
       714    790.089   1267.762     0.548     0.284 -88.7
       715   1514.913   1286.391     3.730     0.488 -27.8
       716   2013.087   1287.960     1.195     0.977  88.6
       717   1103.826   1311.939     2.148     0.706 -56.1
       718    470.971   1290.592     3.318     1.801  22.2
       719   1820.898   1310.745     1.485     0.441 -23.9
       720   1771.239   1294.772     0.451     0.436 -63.1
       721    991.968   1298.947     0.812     0.789  64.6
       722    856.303   1293.505     3.873     1.806  31.5
       723   1815.500   1295.231     0.547     0.531 -81.3
       724    212.219   1277.505     0.775     0.749  27.4
       725    345.108   1274.109     3.233     1.481  42.6
       726    878.584   1244.592     0.612     0.542  11.4
       727   1607.754   1972.401     0.655     0.642  12.0
       728    953.262   1275.515     0.775     0.714 -51.7
       729   1531.516   1866.612     0.786     0.752 -77.4
       730      5.837   1283.722     0.448     0.393 -88.7
       731    417.631   1965.886     7.273     2.142  -4.2
       732    306.989   1272.009     0.390     0.372  89.6
       733   1445.899   1274.838     1.896     0.565  86.2
       734    429.975   1251.981     0.364     0.358  -6.0
       735     91.385   1982.876     0.629     0.608  77.2
       736     58.670   1272.309     0.568     0.519  60.1
       737   1018.026   1265.158     0.624     0.579  86.5
       738   1992.828   1943.527     3.239     0.912 -88.0
       739    234.407   1253.045     9.076     0.593  15.0
       740    556.677   1978.424     0.769     0.467  89.3
       741   1445.975   1836.380     0.681     0.658 -71.0
       742     86.414   1238.415     5.696     0.562  -2.4
       743    403.318   1989.942     0.988     0.723  31.6
       744   1818.399   1252.127     0.717     0.697 -48.8
       745    446.642   1951.459     3.148     0.587  38.2
       746    746.929   1847.144     3.092     0.703  84.0
       747    837.310   1839.242     0.797     0.769 -18.0
       748   1823.441   1819.149     0.751     0.672   3.1
       749    654.411   1219.927     2.224     0.713  -3.7
       750    541.938   1221.561     0.864     0.818  26.1
       751    651.967   1234.004     0.446     0.425 -67.3
       752   1948.988   1233.917     0.522     0.496 -49.2
       753   1162.617   1188.758     0.526     0.461 -37.0
       754   1673.534   1937.826     5.118     0.521  25.7
       755     81.936   1828.229     0.804     0.727  77.2
       756    960.486   1795.396     0.994     0.676  53.0
       757    102.400   1844.218     0.619     0.582 -16.5
       758    309.074   1191.937     0.643     0.625 -32.4
       759    756.321   1906.881    13.074     1.799  25.0
       760    341.140   1190.607     0.698     0.685 -89.9
       761   1666.754   1927.177     0.910     0.497 -37.4
       762   1114.384   1815.276     8.317     1.315 -63.8
       763   1739.413   1852.530     0.501     0.491 -65.9
       764   1834.144   1831.187     4.524     0.612  19.4
       765    700.366   1978.943     0.695     0.689 -16.8
       766    492.066   1930.059     1.164     0.496  40.9
       767   1604.819   1845.575     0.811     0.356  78.4
       768   1204.938   2189.833     0.469     0.371  -7.2
       769   1493.029   1883.687     0.540     0.509 -68.5
       770   1039.168   1873.029     2.897     0.860  39.1
       771     24.146   1824.997     5.492     0.949  40.8
       772   1230.433   1936.577     0.700     0.678 -58.5
       773     42.537   1860.892     0.840     0.761 -87.7
       774    739.503   1793.502     1.276     0.291 -61.5
       775    714.923   1879.895     0.670     0.634 -48.5
       776   1422.709   1862.116     6.796     0.670 -19.9
       777    859.075   1899.161     0.498     0.488  12.0
       778     81.456   1985.104     3.632     1.587  27.3
       779   1447.151   1926.569     0.665     0.598  12.1
       780    496.251   1769.078     1.398     0.447 -12.7
       781   1263.533   1901.894     0.503     0.400 -12.7
       782    829.208   1950.162     3.569     1.322  35.9
       783   1492.810   1895.803     0.669     0.552 -32.4
       784    754.800   1879.800     8.589     1.196  66.0
       785    842.728   1826.661     7.963     0.532  42.7
       786   1736.117   1901.579     0.726     0.718 -83.9
       787    430.543   2121.958     1.308     0.191 -31.7
       788    789.253   1844.442     0.698     0.678  75.0
       789    459.784   1833.793     0.687     0.664  48.4
       790   1438.070   1890.000     0.385     0.313   0.0
       791    968.326   2001.604     0.696     0.684 -50.3
       792    150.230   1870.363     0.669     0.616 -50.6
       793    155.356   1955.197    47.577     1.584  69.5
       794    484.457   1955.097     0.689     0.675  67.1
       795      2.687   1914.736     0.625     0.577 -27.4
       796    465.065   1898.505     0.558     0.525 -85.9
       797   1382.846   1794.702     4.903     0.498  40.7
       798   1316.050   1904.955     3.249     0.905  39.4
       799   1202.263   1892.151     0.865     0.829  43.8
       800     71.684   1953.440     0.813     0.512  27.5
       801    882.866   1924.327     1.233     0.798 -28.6
       802    480.172   1997.916     0.957     0.777 -33.5
       803    113.436   1988.370     7.727     4.903  69.6
       804    595.249   1934.132     0.857     0.544  22.2
       805    834.538   2027.523     0.661     0.647  36.2
       806    958.975   1933.012     0.819     0.168  -1.1
       807    678.879   1922.911     0.449     0.412  74.0
       808    978.348   1927.759     1.171     0.723  46.0
       809   1033.144   1938.847     0.699     0.684 -53.0
       810    654.954   2035.012     0.826     0.817   7.2
       811    569.107   1989.618     0.561     0.538 -14.1
       812    139.908   2028.953     2.290     0.526 -65.9
       813   1340.259   1916.408     1.944     1.099  62.0
       814    596.915   1847.443     2.130     0.725 -82.6
       815   1304.678   1989.166     9.933     0.622 -34.9
       816   1975.537   2010.636     0.760     0.722 -64.9
       817   1545.340   1950.579     1.129     0.473 -43.8
       818   1944.703   2028.147     0.485     0.468 -11.0
       819   1375.129   2024.530     0.499     0.336  89.8
       820   1797.421   2003.749     0.568     0.458 -30.2
       821   1927.252   2021.111     0.577     0.410  69.5
       822   1554.229   2028.079     0.731     0.719 -47.9
       823    475.996   2005.281     0.534     0.295 -89.8
       824   1699.388   2034.765     4.640     0.408 -45.5
       825   1534.000   2037.075     0.556     0.551  -0.1
       826   1812.724   2013.267     8.775     0.681 -23.1
       827    689.392   1884.616     7.163     0.732  34.8
       828   1301.038   1898.729     0.706     0.698  35.6
       829    253.052   2006.631     2.494     0.818 -76.0
       830   1710.263   2012.635     5.292     1.362  -3.2
       831   1451.499   2015.597     4.666     0.530  32.3
